Time,AccX,AccY,AccZ,GyroX,GyroY,GyroZ0.988,0.00278,-0.04433,1.00075,-2.85004,0,-1.134040.996,0.0008,-0.03956,0.98957,-2.66876,0.25177,-1.469551.4,0.00271,-0.04185,0.99033,-2.33643,-0.0705,-1.798361.12,0.00328,-0.04353,0.99304,-2.29614,-0.04028,-1.945981.2,0.00286,-0.0404,0.9861,-2.0343,-0.05035,-1.95941.28,0.00374,-0.03952,0.98358,-1.65161,0.09064,-2.288211.36,0.00519,-0.04204,0.98999,-1.24878,-0.12085,-2.576751.4,0.00481,-0.04501,0.99586,-1.26892,-0.18127,-2.576751.44,0.00496,-0.04028,0.99388,-1.04736,-0.10071,-2.697541.48,0.00473,-0.04356,0.99403,-0.56396,-0.30212,-2.617011.52,0.00519,-0.04135,0.98999,-0.54382,-0.06042,-2.617011.56,0.00381,-0.03654,0.98625,-0.36255,0.02014,-2.684121.6,0.00549,-0.04204,0.99342,-0.02014,-0.18127,-3.019631.64,0.00748,-0.04448,0.99785,0.14099,-0.06042,-2.979371.68,0.00763,-0.04044,0.99678,0.08057,0.10071,-2.939111.72,0.00671,-0.04486,0.99792,0.34241,-0.20142,-2.80491.76,0.00778,-0.04143,0.99541,0.4834,0.02014,-3.046471.8,0.00679,-0.0383,0.99266,0.90637,0.14099,-2.965951.84,0.00565,-0.04189,0.99258,1.08765,0.18127,-2.8721.88,0.00801,-0.03937,0.98976,0.9668,0.18127,-2.764641.92,0.00778,-0.04028,0.99091,1.38977,0.18127,-2.939111.96,0.00725,-0.04425,0.99281,1.75232,0.26184,-2.858581.1,0.00824,-0.04059,0.98755,1.85303,0.22156,-2.831741.104,0.00847,-0.03922,0.98396,2.15515,0.38269,-2.710961.108,0.009,-0.04196,0.98389,2.43713,0.30212,-2.657271.112,0.00954,-0.04074,0.98282,2.67883,0.2417,-2.657271.116,0.00992,-0.04173,0.98412,2.73926,0.16113,-2.455971.12,0.01053,-0.0425,0.98656,2.92053,0.12085,-2.442541.124,0.01244,-0.0415,0.9861,3.2428,0.16113,-2.523071.128,0.01015,-0.04105,0.9874,3.40393,0.14099,-2.469391.132,0.00961,-0.04295,0.98816,3.66577,-0.12085,-2.200971.136,0.01007,-0.04051,0.98915,3.76648,0,-2.026511.14,0.01053,-0.0425,0.98976,4.02832,0.16113,-2.066771.144,0.01038,-0.04143,0.99342,3.88733,0.08057,-2.107031.148,0.01099,-0.04311,0.99731,4.43115,0.14099,-1.905721.152,0.01129,-0.04326,0.9964,4.71313,0.06042,-1.784941.156,0.00992,-0.03983,0.99228,4.81384,0.02014,-1.556791.16,0.00938,-0.04227,0.9922,5.13611,-0.02014,-1.811781.164,0.01053,-0.04105,0.99777,5.29724,0,-1.838621.168,0.01122,-0.04448,1.00266,5.41809,0.18127,-1.623891.172,0.01083,-0.04524,1.00349,5.23682,0.36255,-1.4361.176,0.01129,-0.04318,0.99907,5.07568,0.18127,-1.30181.18,0.01144,-0.04379,0.99754,5.29724,0.2417,-1.087071.184,0.01144,-0.04456,0.99571,5.17639,0.08057,-1.234691.188,0.01106,-0.04021,0.99373,5.13611,0.32227,-1.127331.192,0.01198,-0.04333,0.99953,5.21667,0.2417,-0.899181.196,0.0119,-0.04532,1.00517,5.01526,0.30212,-0.671031.2,0.0119,-0.04494,1.00365,4.99512,0.14099,-0.577081.204,0.01129,-0.04417,1.00105,4.7937,0.20142,-0.509981.208,0.01068,-0.04486,0.99937,4.51172,0,-0.241571.212,0.01114,-0.04402,0.99739,4.67285,-0.08057,-0.013421.216,0.01205,-0.04433,1.00143,4.61243,-0.08057,-0.281831.22,0.0116,-0.04593,1.00784,4.29016,0.04028,-0.187891.224,0.01038,-0.04517,1.00891,3.88733,0,0.040261.228,0.01144,-0.047,1.00815,3.80676,0.08057,0.201311.232,0.01129,-0.0441,1.00548,3.94775,0.10071,0.161051.236,0.00938,-0.04333,1.00288,3.80676,0.22156,0.147631.24,0.00946,-0.04654,1.00418,3.70605,0.18127,0.281831.244,0.01091,-0.04341,1.00571,3.34351,0,0.281831.248,0.01045,-0.04333,1.00822,3.42407,0.08057,0.322091.252,0.01022,-0.04745,1.01189,3.14209,0,0.268411.256,0.01083,-0.04616,1.01021,2.63855,0.04028,0.281831.26,0.01114,-0.0441,1.00693,2.43713,0.30212,0.630771.264,0.0103,-0.04478,1.00395,2.39685,0.26184,0.926021.268,0.00793,-0.04433,1.00037,2.41699,0.16113,0.791811.272,0.00755,-0.0415,1.00166,2.276,0.16113,0.84551.276,0.00862,-0.04555,1.00563,2.21558,0.06042,1.04681.28,0.00908,-0.04616,1.00601,1.97388,0.2417,0.939441.284,0.00862,-0.04555,1.0067,1.83289,0.34241,0.738131.288,0.0074,-0.04692,1.00288,1.83289,0.34241,0.805231.292,0.00946,-0.04272,0.99533,1.47034,0.26184,0.91261.296,0.00633,-0.04257,0.99594,1.81274,-0.06042,0.885761.3,0.00565,-0.04463,1.0009,1.59119,0,0.899181.304,0.00755,-0.04349,1.00273,1.69189,0.04028,0.791811.308,0.00702,-0.04524,1.00334,1.65161,0.22156,0.697871.312,0.00641,-0.0441,1.00197,1.34949,0.08057,0.872341.316,0.0058,-0.04555,0.99701,1.32935,0.30212,0.952861.32,0.0071,-0.04257,0.99487,1.28906,0.20142,0.966281.324,0.00557,-0.04364,0.99594,1.51062,0.12085,0.738131.328,0.00404,-0.04326,0.99792,1.47034,0.04028,0.590511.332,0.00572,-0.04372,1.00037,1.40991,0.06042,0.778391.336,0.00481,-0.04532,1.0041,1.34949,0.18127,0.751551.34,0.00504,-0.04532,1.00426,1.34949,0.38269,0.778391.344,0.00488,-0.04387,1.00159,1.0675,0.54382,0.724711.348,0.00351,-0.04417,1.0009,0.7251,0.46326,0.805231.352,0.00359,-0.04295,0.9996,0.68481,0.54382,0.711291.356,0.00244,-0.04379,0.99922,0.78552,0.36255,0.45631.36,0.00099,-0.04272,1.00166,0.84595,0.26184,0.550241.364,0.00282,-0.04433,1.00433,0.82581,0.30212,0.45631.368,0.00351,-0.04547,1.00502,0.76538,0.10071,0.52341.372,0.00282,-0.04562,1.00296,0.50354,0.12085,0.335511.376,0.00244,-0.04417,0.99846,0.46326,0.22156,0.45631.38,0.00221,-0.04349,0.99655,0.50354,0.30212,0.402621.384,0.00183,-0.04478,0.9996,0.40283,0.30212,0.362361.388,0.00237,-0.04395,1.00105,0.14099,0.4834,0.38921.392,0.00275,-0.04379,1.00319,0.40283,0.64453,0.550241.396,0.00137,-0.04753,1.0051,0.40283,0.60425,0.45631.4,0.00214,-0.04501,1.00029,0.10071,0.54382,0.335511.404,0.00168,-0.04227,0.9967,0.20142,0.34241,0.348931.408,0.0016,-0.04486,0.99785,0.50354,0.2417,0.187891.412,0.00168,-0.04311,1.00006,0.2417,0,0.214731.416,0.00214,-0.04517,1.00449,0.18127,0,0.201311.42,0.00267,-0.04631,1.00693,-0.06042,0.04028,0.375781.424,0.00145,-0.04494,1.00578,-0.18127,0.10071,0.375781.428,0.00084,-0.04593,1.00533,-0.40283,0.18127,0.362361.432,0,-0.04387,1.00426,-0.62439,0.02014,0.45631.436,0.00114,-0.04395,1.00517,-0.74524,0.10071,0.429461.44,0.00061,-0.04639,1.00891,-0.56396,0.08057,0.509981.444,0.00031,-0.04509,1.01067,-0.74524,0.06042,0.536821.448,0.00107,-0.04616,1.01257,-1.14807,0.10071,0.509981.452,0.00107,-0.04723,1.01318,-1.4502,0,0.335511.456,0.00061,-0.04585,1.01097,-1.36963,0,0.52341.46,0.00099,-0.04578,1.01051,-1.85303,0.10071,0.657611.464,0.00084,-0.04616,1.01234,-2.276,-0.12085,0.684451.468,0.00023,-0.04646,1.0141,-2.90039,-0.16113,0.724711.472,0.0013,-0.04662,1.017,-3.16223,-0.14099,0.818661.476,0.00252,-0.05013,1.01936,-3.2428,-0.34241,0.91261.48,0.00259,-0.04784,1.01784,-3.58521,-0.34241,0.926021.484,0.00183,-0.04669,1.01494,-3.9679,-0.38269,0.952861.488,-0.00023,-0.04738,1.01357,-4.29016,-0.26184,0.952861.492,0.00038,-0.04723,1.01349,-4.63257,-0.26184,0.939441.496,0.00206,-0.04555,1.01791,-5.11597,-0.26184,0.84551.5,0.00076,-0.0499,1.0231,-5.47852,-0.34241,1.073651.504,0.00092,-0.04936,1.02173,-5.98206,-0.42297,1.087071.508,0.00275,-0.04707,1.01822,-6.4856,-0.34241,0.97971.512,0.00168,-0.04822,1.01463,-6.828,-0.4834,1.100491.516,-0.00038,-0.04402,1.01112,-7.37183,-0.52368,1.248111.52,0.00191,-0.04494,1.01418,-7.61353,-0.34241,1.006541.524,0.0032,-0.04898,1.02074,-7.95593,-0.54382,0.805231.528,0.00198,-0.04654,1.01959,-8.25806,-0.46326,0.926021.532,0.00183,-0.04555,1.01639,-8.43933,-0.38269,0.97971.536,0.00214,-0.047,1.01357,-8.82202,-0.56396,0.966281.54,0.00183,-0.04433,1.0099,-8.98315,-0.60425,0.952861.544,0.0032,-0.04463,1.01074,-9.18457,-0.62439,0.778391.548,0.00099,-0.04562,1.01128,-9.56726,-0.76538,0.764971.552,0.00328,-0.04387,1.01059,-9.66797,-0.56396,0.778391.556,0.0029,-0.04631,1.01166,-9.72839,-0.44312,0.697871.56,0.00191,-0.04578,1.00899,-10.17151,-0.56396,0.603931.564,0.00351,-0.04349,1.00555,-10.21179,-0.32227,0.630771.568,0.00259,-0.04349,1.00555,-10.13123,-0.4834,0.52341.572,0.0032,-0.0441,1.00494,-10.41321,-0.54382,0.536821.576,0.00252,-0.04074,1.00029,-10.63477,-0.4834,0.281831.58,0.00237,-0.03883,1.00105,-10.49377,-0.44312,0.214731.584,0.00282,-0.04799,1.00471,-10.47363,-0.32227,0.040261.588,0.00366,-0.04166,1.0041,-10.61462,-0.34241,0.093941.592,0.00381,-0.0444,1.00128,-10.75562,-0.38269,0.107361.596,0.00168,-0.04356,0.9964,-10.83618,-0.44312,0.120791.6,0.00221,-0.0396,0.9948,-10.77576,-0.4834,0.040261.604,0.0013,-0.0425,0.99747,-10.57434,-0.32227,-0.040261.608,0.00313,-0.04395,0.9964,-10.3125,-0.46326,-0.120791.612,0.00374,-0.04036,0.99411,-10.29236,-0.68481,-0.214731.616,-0.00099,-0.04013,0.9951,-10.05066,-0.58411,-0.335511.62,0.00191,-0.04448,0.99335,-9.94995,-0.54382,-0.201311.624,0.00214,-0.03586,0.98816,-9.78882,-0.60425,-0.06711.628,0.0016,-0.03891,0.99274,-9.22485,-0.64453,-0.483141.632,0.00458,-0.04745,1.00113,-9.12415,-0.52368,-0.38921.636,0.00351,-0.03738,0.9967,-9.0033,-0.60425,-0.362361.64,0.00107,-0.04143,0.99014,-8.74146,-0.52368,-0.52341.644,0.00153,-0.04204,0.97977,-8.49976,-0.54382,-0.603931.648,-0.00038,-0.03067,0.97336,-8.47961,-0.44312,-0.697871.652,0.0042,-0.03822,0.98671,-7.99622,-0.40283,-0.91261.656,0.00725,-0.04898,0.99609,-7.63367,-0.64453,-0.97971.66,0.00183,-0.03166,0.98709,-7.63367,-0.44312,-0.97971.664,0.00481,-0.04303,0.98877,-7.13013,-0.22156,-1.019961.668,0.00496,-0.04509,0.98221,-7.08984,-0.12085,-0.939441.672,0.00038,-0.02876,0.96909,-6.54602,-0.10071,-0.899181.676,0.00473,-0.0444,0.98434,-5.80078,-0.16113,-0.939441.68,0.00862,-0.03937,0.98778,-5.65979,-0.22156,-1.382321.684,0.0045,-0.03937,0.98656,-5.2771,-0.26184,-1.342061.688,0.00336,-0.04494,0.98793,-4.95483,-0.10071,-0.966281.692,0.00328,-0.03365,0.9745,-4.53186,-0.04028,-0.993121.696,0.00465,-0.03983,0.9761,-3.88733,0,-0.926021.7,0.00465,-0.03937,0.97969,-3.62549,-0.34241,-0.993121.704,0.00648,-0.03525,0.98175,-3.40393,-0.44312,-1.060231.708,0.00549,-0.04433,0.98862,-3.06152,-0.2417,-1.261531.712,0.00427,-0.0399,0.98343,-2.92053,-0.2417,-1.261531.716,0.00778,-0.03563,0.97572,-2.31628,-0.14099,-0.966281.72,0.0045,-0.03922,0.97694,-1.26892,-0.14099,-0.657611.724,0.00908,-0.0412,0.98328,-1.14807,-0.12085,-0.885761.728,0.00671,-0.03952,0.9819,-0.94666,-0.38269,-0.939441.732,0.00496,-0.03998,0.97443,-0.36255,-0.52368,-0.818661.736,0.00763,-0.03708,0.97351,0.18127,-0.58411,-0.697871.74,0.00282,-0.03654,0.98061,0.80566,-0.32227,-0.684451.744,0.00992,-0.04639,0.989,1.16821,-0.16113,-0.684451.748,0.00854,-0.03723,0.98198,1.12793,-0.34241,-0.657611.752,0.00511,-0.03807,0.9758,1.91345,-0.22156,-0.711291.756,0.00732,-0.04166,0.97717,2.23572,-0.32227,-0.630771.76,0.00359,-0.03677,0.97855,2.49756,-0.28198,-0.738131.764,0.00656,-0.04128,0.98816,3.10181,-0.30212,-0.671031.768,0.00999,-0.04166,0.99503,3.22266,-0.36255,-0.45631.772,0.00816,-0.04257,0.99594,3.62549,-0.46326,-0.308671.776,0.00832,-0.04074,0.98579,3.86719,-0.28198,-0.120791.78,0.00572,-0.03815,0.97641,4.04846,-0.34241,-0.201311.784,0.00572,-0.03639,0.97824,4.27002,-0.32227,-0.093941.788,0.00725,-0.04166,0.99113,4.71313,-0.04028,-0.201311.792,0.00931,-0.04471,1.00288,4.63257,-0.10071,-0.06711.796,0.01015,-0.04463,1.00174,4.57214,-0.08057,0.013421.8,0.00717,-0.04074,0.99388,4.61243,-0.14099,0.040261.804,0.00778,-0.04005,0.98625,5.0354,-0.16113,0.134211.808,0.00618,-0.03944,0.98465,5.11597,-0.22156,0.080521.812,0.00793,-0.04066,0.9903,5.29724,-0.28198,0.362361.816,0.00961,-0.04204,0.99648,5.43823,-0.2417,0.536821.82,0.00946,-0.04517,1.00075,5.39795,-0.30212,0.550241.824,0.00862,-0.04517,0.998,5.47852,-0.32227,0.322091.828,0.00656,-0.04135,0.99037,5.78064,-0.02014,0.161051.832,0.00839,-0.04349,0.9864,5.86121,-0.04028,0.147631.836,0.00725,-0.0396,0.98511,5.98206,-0.16113,0.45631.84,0.00763,-0.0412,0.9906,6.20361,-0.28198,0.617351.844,0.00732,-0.04555,0.99785,6.36475,-0.26184,0.832081.848,0.00648,-0.04021,0.99686,6.18347,-0.28198,0.684451.852,0.0074,-0.0444,0.99983,6.36475,-0.20142,0.644191.856,0.00793,-0.04364,0.99876,6.28418,-0.12085,0.711291.86,0.00618,-0.0412,0.99297,6.64673,-0.2417,0.630771.864,0.00519,-0.04204,0.98953,6.86829,-0.44312,0.697871.868,0.00465,-0.04021,0.98839,6.80786,-0.4834,0.617351.872,0.0029,-0.04059,0.99464,6.86829,-0.22156,0.322091.876,0.00488,-0.04509,1.00258,6.94885,-0.06042,0.429461.88,0.00725,-0.04173,1.0038,7.10999,0.04028,0.536821.884,0.00603,-0.04395,1.00052,7.33154,0.04028,0.509981.888,0.00374,-0.04196,0.99365,7.35168,0.08057,0.550241.892,0.00366,-0.03792,0.98747,7.3114,-0.16113,0.375781.896,0.0029,-0.04173,0.99174,7.61353,-0.26184,0.416041.9,0.00435,-0.04303,0.99861,7.81494,-0.40283,0.322091.904,0.00557,-0.04395,1.00418,7.45239,-0.34241,01.908,0.00725,-0.04646,1.00639,7.39197,-0.04028,-0.161051.912,0.00336,-0.04364,0.9948,7.59338,-0.06042,-0.080521.916,0.00153,-0.03754,0.98358,7.71423,0.04028,0.093941.92,0.00298,-0.04097,0.98579,7.75452,0.02014,-0.161051.924,0.00351,-0.04143,0.99312,8.0365,-0.04028,-0.322091.928,0.00725,-0.04219,1.00296,8.25806,-0.30212,-0.362361.932,0.00603,-0.05028,1.01051,7.89551,-0.40283,-0.416041.936,0.00404,-0.04395,1.00159,7.5531,-0.02014,-0.483141.94,0.00275,-0.04128,0.99281,7.71423,-0.06042,-0.550241.944,0.0016,-0.03937,0.9877,7.59338,-0.18127,-0.52341.948,0.00404,-0.0396,0.99007,7.81494,0.04028,-0.738131.952,0.00549,-0.04387,1.00311,7.89551,-0.02014,-1.019961.956,0.00633,-0.05241,1.01212,7.91565,-0.12085,-0.993121.96,0.00443,-0.04326,1.00388,7.61353,-0.22156,-1.181011.964,0.0032,-0.04036,0.99503,7.91565,-0.12085,-1.261531.968,0.00168,-0.04425,0.99556,8.07678,0.08057,-1.355481.972,0.00328,-0.03967,0.99503,7.91565,0.28198,-1.355481.976,0.00587,-0.04372,1.00197,7.87537,0.30212,-1.516531.98,0.00435,-0.04967,1.01112,7.87537,0.30212,-1.704411.984,0.00397,-0.04417,1.00624,7.57324,0.04028,-1.838621.988,0.00343,-0.0425,1.0009,7.39197,0.06042,-1.838621.992,0.00206,-0.04379,0.99838,7.13013,0.04028,-1.89231.996,0.00359,-0.04135,1.00006,7.19055,0.02014,-1.905722,0.00565,-0.04524,1.00632,7.47253,-0.10071,-1.878882.4,0.00504,-0.04875,1.0112,7.39197,0.14099,-2.133872.8,0.0045,-0.04532,1.00456,7.13013,0.02014,-2.133872.12,0.00488,-0.04189,0.99831,6.80786,-0.20142,-2.066772.16,0.00374,-0.04318,1.00052,6.5863,-0.20142,-2.241242.2,0.00397,-0.04616,1.007,6.38489,0.04028,-2.133872.24,0.00694,-0.04509,1.01082,6.08276,0.22156,-2.268082.28,0.00595,-0.04936,1.01456,6.0022,0.02014,-2.294922.32,0.00412,-0.04684,1.01219,5.70007,0.04028,-2.28152.36,0.0058,-0.04356,1.00639,5.65979,0.02014,-2.442542.4,0.00412,-0.04478,1.00731,5.35767,-0.18127,-2.28152.44,0.00504,-0.04684,1.01059,5.15625,-0.14099,-2.21442.48,0.00587,-0.04547,1.01448,4.77356,-0.10071,-2.34862.52,0.00542,-0.04883,1.01753,4.65271,-0.20142,-2.013092.56,0.00526,-0.05005,1.01639,4.24988,-0.02014,-1.95942.6,0.00504,-0.04501,1.01051,3.78662,-0.04028,-1.986252.64,0.00694,-0.04631,1.01189,3.64563,-0.22156,-2.053352.68,0.00587,-0.04837,1.01364,3.16223,-0.38269,-2.013092.72,0.00687,-0.04555,1.0112,2.86011,-0.44312,-2.187552.76,0.00732,-0.04745,1.01547,2.65869,-0.36255,-1.972822.8,0.00572,-0.04883,1.01364,1.95374,-0.08057,-2.120452.84,0.0061,-0.04562,1.01006,1.71204,-0.12085,-1.865462.88,0.00755,-0.04829,1.0128,1.59119,-0.06042,-1.771522.92,0.00816,-0.047,1.01067,1.34949,-0.16113,-1.690992.96,0.00496,-0.04601,1.00975,1.10779,-0.38269,-1.690992.1,0.00504,-0.04623,1.01006,0.60425,-0.34241,-1.731252.104,0.00778,-0.04379,1.00792,0.20142,-0.28198,-1.784942.108,0.00633,-0.04677,1.00845,0.26184,-0.38269,-1.75812.112,0.00732,-0.04517,1.00998,0.06042,-0.30212,-1.731252.116,0.00816,-0.04433,1.01204,-0.12085,-0.2417,-1.597052.12,0.00702,-0.04822,1.01257,-0.54382,-0.46326,-1.462842.124,0.00687,-0.04524,1.00792,-1.02722,-0.54382,-1.328642.128,0.00587,-0.0415,1.00533,-1.08765,-0.64453,-1.194432.132,0.00748,-0.04608,1.00662,-1.16821,-0.64453,-1.033382.136,0.00809,-0.04433,1.00594,-1.34949,-0.36255,-0.791812.14,0.00771,-0.04349,1.007,-1.49048,-0.4834,-0.791812.144,0.00778,-0.04776,1.008,-1.67175,-0.44312,-1.060232.148,0.00862,-0.04303,1.00395,-1.77246,-0.4834,-1.154172.152,0.00793,-0.0441,1.00571,-1.69189,-0.68481,-0.671032.156,0.00557,-0.0457,1.00334,-1.93359,-0.78552,-0.577082.16,0.00809,-0.0412,0.99869,-2.09473,-0.7251,-0.577082.164,0.00992,-0.04433,1.0038,-1.93359,-0.68481,-0.536822.168,0.00969,-0.04623,1.00426,-2.29614,-0.74524,-0.657612.172,0.00977,-0.04295,1.00067,-2.31628,-0.60425,-0.671032.176,0.00977,-0.04486,1.00365,-2.29614,-0.74524,-0.791812.18,0.0106,-0.04517,1.00311,-2.59827,-0.62439,-0.563662.184,0.00862,-0.04318,0.99945,-2.53784,-0.66467,-0.778392.188,0.00862,-0.04173,0.99678,-2.276,-0.46326,-0.429462.192,0.01137,-0.04158,0.99754,-2.21558,-0.52368,-0.509982.196,0.01076,-0.04478,1.0006,-2.09473,-0.66467,-0.362362.2,0.0106,-0.04402,1.00182,-2.41699,-0.54382,-0.38922.204,0.0116,-0.04242,1.00189,-2.43713,-0.70496,-0.38922.208,0.0116,-0.04585,1.00334,-2.41699,-0.78552,-0.308672.212,0.0106,-0.04486,0.99991,-2.61841,-0.92651,-0.442882.216,0.01198,-0.04234,0.99716,-2.73926,-0.64453,-0.751552.22,0.01236,-0.04356,0.99976,-2.55798,-0.74524,-0.590512.224,0.01144,-0.04311,1.00273,-2.5177,-0.64453,-0.429462.228,0.0132,-0.04654,1.00632,-2.5177,-0.34241,-0.550242.232,0.01183,-0.04478,1.00471,-2.79968,-0.44312,-0.375782.236,0.0119,-0.0444,1.00227,-2.69897,-0.64453,-0.228152.24,0.01305,-0.04562,1.00266,-2.61841,-0.64453,-0.161052.244,0.01099,-0.04227,0.99777,-2.53784,-0.54382,-0.38922.248,0.01083,-0.04303,0.99838,-2.39685,-0.50354,-0.402622.252,0.01381,-0.04509,1.00235,-2.69897,-0.46326,-0.362362.256,0.01411,-0.04227,1.00235,-2.81982,-0.50354,-0.348932.26,0.0132,-0.04684,1.00571,-2.7594,-0.60425,-0.241572.264,0.0132,-0.04745,1.00555,-3.04138,-0.4834,-0.348932.268,0.01541,-0.03876,1.0006,-2.96082,-0.66467,-0.657612.272,0.01106,-0.04845,1.00136,-3.08167,-0.80566,-0.429462.276,0.01091,-0.04181,0.99617,-3.32336,-0.4834,-0.254992.28,0.01457,-0.0383,0.99831,-2.94067,-0.60425,-0.228152.284,0.01289,-0.05058,1.00853,-2.69897,-0.18127,-0.241572.288,0.01297,-0.04318,1.00418,-3.10181,-0.22156,-0.281832.292,0.01411,-0.04135,1.00533,-3.12195,-0.46326,-0.040262.296,0.01389,-0.05035,1.00853,-3.0011,-0.32227,-0.06712.3,0.01213,-0.04059,0.99823,-3.40393,-0.46326,-0.201312.304,0.01053,-0.04051,0.99815,-3.10181,-0.42297,-0.201312.308,0.01343,-0.04784,1.00365,-3.0011,-0.32227,-0.201312.312,0.01175,-0.04066,1.00082,-3.54492,-0.4834,-0.134212.316,0.0116,-0.04463,1.00533,-3.2428,-0.44312,0.06712.32,0.01358,-0.04745,1.00716,-3.64563,-0.2417,0.254992.324,0.01312,-0.04051,1.0022,-3.62549,-0.28198,0.120792.328,0.01259,-0.04456,1.00403,-3.44421,-0.32227,0.161052.332,0.01343,-0.04585,1.00357,-3.56506,-0.50354,0.442882.336,0.01297,-0.04044,0.99907,-3.64563,-0.64453,0.335512.34,0.01297,-0.04478,1.00243,-3.52478,-0.62439,0.040262.344,0.01526,-0.04585,1.00418,-3.68591,-0.44312,0.093942.348,0.01427,-0.04257,1.00365,-3.9679,-0.40283,0.093942.352,0.01305,-0.04547,1.00548,-4.02832,-0.2417,0.254992.356,0.0148,-0.04402,1.0054,-3.94775,-0.44312,0.45632.36,0.01343,-0.04448,1.0022,-4.08875,-0.42297,0.550242.364,0.01228,-0.04539,1.00075,-4.33044,-0.22156,0.630772.368,0.01335,-0.04181,1.00113,-4.552,-0.14099,0.617352.372,0.01488,-0.04494,1.00761,-4.16931,-0.04028,0.697872.376,0.0148,-0.0457,1.0083,-4.552,-0.22156,0.791812.38,0.01358,-0.04288,1.00502,-4.65271,-0.44312,0.818662.384,0.01534,-0.04539,1.00609,-4.45129,-0.34241,0.84552.388,0.01373,-0.04387,1.00235,-4.35059,-0.50354,0.590512.392,0.01251,-0.0415,0.9993,-4.53186,-0.38269,0.818662.396,0.01419,-0.04524,1.00327,-4.51172,-0.44312,0.832082.4,0.01373,-0.04211,1.00342,-4.73328,-0.40283,0.97972.404,0.01541,-0.0444,1.00288,-5.01526,-0.32227,1.154172.408,0.01411,-0.04738,1.00166,-4.97498,-0.28198,1.288382.412,0.01488,-0.03975,0.99594,-5.01526,-0.10071,1.476262.416,0.01434,-0.04295,0.99655,-4.63257,-0.32227,1.288382.42,0.01328,-0.0444,0.99846,-4.75342,-0.20142,1.422582.424,0.01434,-0.04143,0.99571,-4.7937,-0.18127,1.556792.428,0.01289,-0.04288,0.99503,-4.63257,-0.34241,1.623892.432,0.01427,-0.04517,0.99457,-4.77356,-0.42297,1.637312.436,0.01366,-0.04036,0.99106,-4.552,-0.42297,1.664152.44,0.01297,-0.04135,0.99205,-4.29016,-0.22156,1.610472.444,0.01442,-0.04181,0.99144,-4.22974,-0.12085,1.811782.448,0.01335,-0.04143,0.98984,-4.0686,-0.28198,1.919142.452,0.01175,-0.04303,0.98724,-3.76648,-0.30212,1.798362.456,0.0106,-0.03983,0.98549,-3.34351,-0.20142,1.865462.46,0.01137,-0.04074,0.98709,-3.06152,-0.30212,1.865462.464,0.01137,-0.04333,0.98839,-2.57813,-0.2417,1.744672.468,0.01114,-0.0396,0.98557,-2.61841,-0.12085,1.89232.472,0.01183,-0.03975,0.98518,-2.13501,-0.06042,1.878882.476,0.00954,-0.0412,0.98328,-2.01416,-0.14099,1.717832.48,0.00862,-0.03784,0.98007,-1.67175,0.04028,1.852042.484,0.00923,-0.03853,0.98061,-1.2085,0.16113,1.82522.488,0.00854,-0.04044,0.98198,-0.80566,-0.12085,1.556792.492,0.00786,-0.03899,0.98236,-0.40283,-0.12085,1.623892.496,0.00877,-0.04097,0.98152,-0.14099,0.08057,1.610472.5,0.00801,-0.0386,0.97809,0.20142,-0.12085,1.623892.504,0.00771,-0.03906,0.97588,0.64453,-0.04028,1.570212.508,0.00816,-0.04021,0.97717,1.02722,0.06042,1.597052.512,0.00763,-0.03807,0.97679,1.5509,-0.10071,1.395742.516,0.0071,-0.03944,0.97755,1.99402,-0.02014,1.328642.52,0.00725,-0.03929,0.97855,2.55798,0.14099,1.113912.524,0.00702,-0.03853,0.97725,2.86011,0.26184,0.926022.528,0.00641,-0.03944,0.97824,3.30322,0.14099,1.100492.532,0.00626,-0.03883,0.97847,3.94775,0.18127,1.060232.536,0.00641,-0.037,0.97771,4.51172,-0.10071,0.791812.54,0.00618,-0.0396,0.97878,4.91455,-0.14099,0.738132.544,0.0061,-0.03975,0.97893,5.31738,-0.04028,0.550242.548,0.00648,-0.03899,0.98015,5.98206,0.06042,0.322092.552,0.00542,-0.04036,0.98312,6.22375,0.14099,0.442882.556,0.00679,-0.04051,0.98503,6.4856,0.30212,0.308672.56,0.00671,-0.04066,0.98541,7.04956,0.14099,0.214732.564,0.00702,-0.0412,0.98572,7.49268,0.10071,-0.06712.568,0.00702,-0.0412,0.98419,7.63367,0.34241,-0.362362.572,0.00603,-0.03906,0.98351,7.71423,0.26184,-0.496562.576,0.00687,-0.04112,0.98671,8.23792,0.40283,-0.630772.58,0.00702,-0.04158,0.9893,8.56018,0.38269,-0.630772.584,0.00809,-0.04196,0.99068,8.88245,0.42297,-0.657612.588,0.00748,-0.04326,0.99106,9.06372,0.32227,-0.818662.592,0.00687,-0.04135,0.98686,9.20471,0.44312,-0.899182.596,0.00679,-0.04059,0.98625,9.32556,0.34241,-0.872342.6,0.00656,-0.04219,0.99121,9.44641,0.14099,-1.30182.604,0.00771,-0.04387,0.99556,9.40613,0.16113,-1.529952.608,0.00755,-0.04471,0.99747,9.60754,0.32227,-1.409162.612,0.00702,-0.0441,0.99548,9.54712,0.26184,-1.4362.616,0.0061,-0.0428,0.9938,9.76868,0.16113,-1.543372.62,0.00648,-0.04265,0.99533,9.84924,0.30212,-1.570212.624,0.00824,-0.04341,0.99884,9.64783,0.46326,-1.570212.628,0.00931,-0.04517,1.00281,9.78882,0.22156,-1.838622.632,0.00839,-0.04494,1.00342,9.88953,-0.04028,-1.82522.636,0.00778,-0.04509,1.0006,9.88953,0.20142,-1.690992.64,0.00816,-0.04349,1.00136,9.62769,0.40283,-1.75812.644,0.00664,-0.04318,1.00304,9.48669,0.2417,-1.986252.648,0.00862,-0.04364,1.00685,9.50684,-0.02014,-2.013092.652,0.00839,-0.04707,1.0112,9.52698,0.32227,-1.919142.656,0.00893,-0.04623,1.0112,9.36584,0.38269,-1.731252.66,0.00854,-0.0473,1.00937,8.74146,0.34241,-2.039932.664,0.00908,-0.04402,1.00426,8.8623,0.26184,-2.120452.668,0.00839,-0.04326,1.00449,8.66089,0.32227,-2.026512.672,0.0087,-0.04639,1.00792,8.60046,0.22156,-2.026512.676,0.01022,-0.04562,1.01074,8.39905,0.42297,-1.82522.68,0.00923,-0.04639,1.01295,7.93579,0.36255,-1.556792.684,0.00969,-0.04601,1.00777,7.41211,0.06042,-1.717832.688,0.00992,-0.04318,1.00037,6.98914,0.04028,-1.556792.692,0.00877,-0.04425,0.99869,6.98914,0.04028,-1.610472.696,0.00908,-0.04471,1.00044,7.04956,0.10071,-1.462842.7,0.01022,-0.04517,1.00723,6.828,0.12085,-1.355482.704,0.01038,-0.04913,1.01448,6.60645,0.04028,-1.355482.708,0.00885,-0.04677,1.01288,6.26404,0.16113,-1.221272.712,0.00854,-0.0457,1.00677,5.92163,0.12085,-1.248112.716,0.00984,-0.04509,1.00197,5.94177,0.16113,-1.167592.72,0.009,-0.04318,1.0009,5.72021,0.14099,-1.087072.724,0.01007,-0.04608,1.0067,5.55908,0.26184,-1.194432.728,0.01007,-0.04776,1.01334,5.29724,0.06042,-1.154172.732,0.01053,-0.04662,1.01349,5.2771,0.04028,-1.140752.736,0.00977,-0.04852,1.01028,4.97498,0.16113,-0.818662.74,0.00832,-0.04417,1.00563,4.99512,0.12085,-0.84552.744,0.00969,-0.04204,1.00334,4.99512,-0.02014,-0.899182.748,0.009,-0.04639,1.00761,5.11597,-0.02014,-0.778392.752,0.00961,-0.04608,1.01006,4.89441,0.02014,-0.724712.756,0.01007,-0.04539,1.00967,4.73328,-0.10071,-0.603932.76,0.00816,-0.04753,1.00731,4.37073,-0.12085,-0.590512.764,0.00931,-0.04471,1.0022,4.12903,0,-0.362362.768,0.009,-0.04349,1.00082,3.98804,-0.10071,-0.805232.772,0.00977,-0.04639,1.00334,3.98804,-0.06042,-0.764972.776,0.00999,-0.04547,1.0038,3.70605,-0.22156,-0.711292.78,0.0087,-0.04562,1.00342,3.60535,-0.32227,-0.38922.784,0.00832,-0.047,1.00243,3.62549,-0.26184,-0.348932.788,0.00809,-0.04463,0.9996,3.30322,-0.36255,-0.348932.792,0.00961,-0.04501,1.00357,3.04138,-0.42297,-0.348932.796,0.00916,-0.04852,1.00891,2.83997,-0.30212,-0.335512.8,0.00854,-0.04486,1.0083,2.61841,-0.32227,-0.536822.804,0.00916,-0.04654,1.00815,2.45728,-0.40283,-0.161052.808,0.00809,-0.0457,1.00578,2.33643,-0.40283,-0.107362.812,0.00954,-0.04265,1.00594,2.13501,-0.10071,-0.214732.816,0.00908,-0.04677,1.01158,1.99402,-0.32227,-0.402622.82,0.00999,-0.04631,1.01341,1.73218,-0.20142,-0.402622.824,0.01106,-0.04692,1.01624,1.5509,-0.28198,-0.228152.828,0.009,-0.04929,1.01471,1.02722,-0.14099,-0.147632.832,0.00931,-0.04433,1.0083,0.68481,-0.06042,-0.214732.836,0.00969,-0.04456,1.00815,0.62439,-0.08057,-0.348932.84,0.01076,-0.04646,1.01189,0.40283,0,-0.201312.844,0.0106,-0.04616,1.01494,0.04028,-0.10071,-0.161052.848,0.00969,-0.04799,1.01517,-0.10071,-0.14099,02.852,0.01091,-0.04654,1.01051,-0.30212,-0.06042,0.161052.856,0.01083,-0.04433,1.00578,-0.58411,-0.04028,-0.241572.86,0.01137,-0.04654,1.00601,-0.56396,-0.10071,-0.228152.864,0.01167,-0.04639,1.00616,-0.78552,-0.20142,0.040262.868,0.0119,-0.04631,1.00632,-1.18835,0,-0.053682.872,0.01205,-0.0473,1.00792,-1.69189,-0.26184,-0.375782.876,0.01122,-0.04578,1.00609,-1.77246,-0.18127,-0.228152.88,0.01091,-0.04501,1.00655,-2.0343,-0.22156,-0.254992.884,0.01091,-0.04654,1.00922,-2.33643,-0.26184,-0.442882.888,0.01099,-0.04608,1.00983,-2.43713,-0.26184,-0.281832.892,0.01076,-0.04555,1.01105,-2.96082,0.06042,-0.38922.896,0.01167,-0.0473,1.01021,-3.0011,-0.04028,-0.375782.9,0.0106,-0.04517,1.00876,-3.2428,-0.10071,-0.308672.904,0.00992,-0.04593,1.01143,-3.20251,0,-0.295252.908,0.01076,-0.04799,1.01288,-3.30322,0.04028,-0.322092.912,0.01099,-0.0441,1.01334,-3.58521,-0.14099,-0.402622.916,0.01053,-0.04753,1.01639,-3.68591,-0.2417,-0.308672.92,0.01137,-0.04799,1.01479,-4.10889,-0.22156,-0.38922.924,0.01038,-0.0444,1.00952,-4.53186,-0.14099,-0.416042.928,0.01022,-0.0457,1.01051,-4.65271,-0.12085,-0.295252.932,0.01038,-0.04578,1.01158,-4.87427,0.10071,-0.348932.936,0.00999,-0.04478,1.01089,-5.21667,0.04028,-0.590512.94,0.01167,-0.04898,1.01425,-5.55908,-0.18127,-0.509982.944,0.01114,-0.04623,1.01097,-6.04248,-0.20142,-0.603932.948,0.01068,-0.04402,1.00662,-6.10291,0.04028,-0.496562.952,0.00977,-0.04715,1.00555,-6.16333,-0.04028,-0.429462.956,0.01366,-0.04311,1.0006,-6.36475,-0.08057,-0.590512.96,0.01213,-0.04509,1.00204,-6.52588,-0.10071,-0.684452.964,0.01205,-0.04738,1.00388,-6.54602,-0.04028,-0.751552.968,0.01358,-0.0428,1.0022,-6.76758,-0.02014,-0.617352.972,0.01129,-0.04478,1.00449,-6.92871,-0.02014,-0.52342.976,0.01144,-0.04814,1.00723,-7.17041,-0.04028,-0.375782.98,0.01068,-0.04372,1.00456,-7.53296,-0.10071,-0.536822.984,0.01122,-0.0444,1.00487,-7.43225,0,-0.45632.988,0.01167,-0.04723,1.00861,-7.67395,0.02014,-0.375782.992,0.01114,-0.04211,1.00533,-7.73438,-0.32227,-0.429462.996,0.01175,-0.04356,1.00807,-7.53296,-0.22156,-0.577083,0.01137,-0.04814,1.00967,-7.67395,-0.14099,-0.496563.4,0.01144,-0.04128,1.00471,-8.0365,0.32227,-0.416043.8,0.01183,-0.04463,1.00784,-7.99622,0.36255,-0.429463.12,0.01228,-0.04578,1.00456,-8.15735,0.18127,-0.308673.16,0.01167,-0.04005,1.00067,-8.2782,0.14099,-0.416043.2,0.01083,-0.04471,1.0038,-8.35876,-0.02014,-0.45633.24,0.01129,-0.04402,1.0025,-8.45947,-0.02014,-0.295253.28,0.01022,-0.03937,0.99899,-8.25806,0,-0.295253.32,0.01068,-0.0457,1.00212,-8.19763,0,-0.268413.36,0.01266,-0.04112,0.99594,-8.17749,0.28198,-0.06713.4,0.01053,-0.0386,0.99243,-7.87537,0.2417,-0.06713.44,0.01129,-0.04745,0.99571,-7.71423,0.02014,0.040263.48,0.01274,-0.04166,0.99129,-7.81494,-0.02014,0.187893.52,0.01068,-0.04158,0.98816,-7.53296,-0.20142,0.201313.56,0.01091,-0.04578,0.98839,-7.25098,-0.04028,03.6,0.01068,-0.03716,0.98412,-7.25098,0.12085,-0.268413.64,0.01038,-0.03998,0.98907,-6.76758,0.2417,-0.080523.68,0.01053,-0.04623,0.99358,-6.828,0.14099,0.107363.72,0.00984,-0.03929,0.98999,-6.84814,0.02014,0.429463.76,0.01015,-0.04456,0.99411,-6.32446,0.16113,0.308673.8,0.00984,-0.04265,0.99297,-6.02234,0.18127,0.228153.84,0.00977,-0.03769,0.98778,-6.0022,0.06042,0.161053.88,0.00778,-0.04158,0.99022,-5.53894,0.20142,0.093943.92,0.00977,-0.04295,0.99304,-5.55908,0.30212,0.335513.96,0.01068,-0.04257,0.9935,-5.2771,0.32227,0.187893.1,0.00786,-0.04555,0.99548,-5.07568,0.28198,0.093943.104,0.0087,-0.0412,0.99121,-4.93469,0.26184,0.201313.108,0.00908,-0.04135,0.99045,-4.71313,0.42297,0.335513.112,0.00656,-0.04112,0.99251,-4.45129,0.42297,0.402623.116,0.00526,-0.0399,0.98831,-4.41101,0.36255,0.38923.12,0.00839,-0.04158,0.99068,-3.92761,0.36255,0.187893.124,0.00793,-0.04326,0.9935,-3.9679,0.20142,0.080523.128,0.00587,-0.0386,0.98885,-3.80676,0.28198,0.201313.132,0.0071,-0.04456,0.9906,-3.30322,0.52368,0.241573.136,0.00938,-0.0396,0.98846,-3.22266,0.46326,0.093943.14,0.00725,-0.03914,0.98541,-2.98096,0.36255,0.201313.144,0.00633,-0.04669,0.98701,-2.90039,0.04028,0.06713.148,0.00641,-0.03563,0.98404,-2.77954,0.22156,0.080523.152,0.00664,-0.04066,0.98907,-2.25586,0.12085,0.147633.156,0.00687,-0.04822,0.99876,-2.07458,0.22156,0.201313.16,0.00648,-0.03883,0.99518,-2.13501,0.18127,0.013423.164,0.00595,-0.04211,0.99319,-1.89331,0.20142,-0.174473.168,0.00671,-0.04593,0.99243,-1.93359,0.10071,-0.442883.172,0.00488,-0.03822,0.98755,-1.87317,0.12085,-0.483143.176,0.00465,-0.04028,0.99174,-1.71204,0.36255,-0.429463.18,0.00664,-0.047,1.00006,-1.57104,0.32227,-0.241573.184,0.00641,-0.04272,1.00166,-1.71204,0.40283,-0.201313.188,0.00587,-0.04417,1.00182,-1.69189,0.40283,-0.362363.192,0.00671,-0.04326,0.99945,-1.61133,0.4834,-0.590513.196,0.00656,-0.03929,0.9977,-1.63147,0.42297,-0.362363.2,0.00496,-0.04539,0.99922,-1.3092,0.28198,-0.375783.204,0.00656,-0.04204,1.00037,-1.34949,0.28198,-0.496563.208,0.00572,-0.04311,1.00311,-1.38977,0.2417,-0.764973.212,0.00427,-0.04593,1.00494,-1.40991,0.2417,-0.84553.216,0.00519,-0.04311,1.0009,-1.26892,0.18127,-0.778393.22,0.00488,-0.04189,1.0006,-1.02722,0.40283,-0.630773.224,0.00687,-0.04478,0.99907,-1.14807,0.50354,-0.657613.228,0.00648,-0.04128,0.99312,-1.28906,0.38269,-0.509983.232,0.00679,-0.04158,0.9906,-1.24878,0.06042,-0.671033.236,0.00496,-0.0415,0.99297,-1.08765,0.08057,-0.671033.24,0.00473,-0.04173,0.99709,-1.10779,0.12085,-0.657613.244,0.00809,-0.04379,1.00197,-1.24878,0.40283,-0.764973.248,0.00618,-0.04646,1.00189,-1.3092,0.34241,-0.818663.252,0.00755,-0.04059,0.99754,-1.34949,0.32227,-0.778393.256,0.00748,-0.04311,0.99358,-1.18835,0.34241,-0.671033.26,0.00641,-0.04219,0.98778,-1.16821,0.14099,-0.577083.264,0.00641,-0.0399,0.98824,-1.28906,0.10071,-0.603933.268,0.0071,-0.0415,0.9948,-1.14807,0.14099,-0.778393.272,0.009,-0.04356,1.00204,-1.2085,0.18127,-0.764973.276,0.00603,-0.04539,1.00319,-1.26892,0,-0.832083.28,0.00732,-0.04028,0.99831,-1.26892,0.22156,-0.577083.284,0.00771,-0.04463,0.9935,-0.92651,0.02014,-0.577083.288,0.00496,-0.0396,0.98701,-0.74524,-0.10071,-0.563663.292,0.00694,-0.03914,0.98602,-0.68481,-0.08057,-0.52343.296,0.00603,-0.04349,0.99525,-0.32227,0.06042,-0.402623.3,0.00603,-0.0399,1.00128,-0.18127,0.34241,-0.281833.304,0.0061,-0.04227,1.00166,-0.06042,0.38269,-0.120793.308,0.00679,-0.04028,0.99625,0.10071,0.44312,-0.053683.312,0.00702,-0.03944,0.98808,0.12085,0.30212,-0.214733.316,0.00618,-0.04501,0.98366,0.54382,0.22156,-0.254993.32,0.00694,-0.0399,0.98045,0.70496,0.40283,-0.228153.324,0.0061,-0.0354,0.98457,0.92651,0.20142,-0.107363.328,0.00671,-0.04433,0.99335,1.28906,0.22156,0.187893.332,0.00786,-0.04601,0.99068,1.2085,0.30212,0.322093.336,0.00717,-0.0425,0.9832,1.5509,0.32227,0.268413.34,0.0061,-0.04272,0.98213,2.15515,0.26184,0.429463.344,0.00641,-0.03563,0.97641,2.31628,0.08057,0.644193.348,0.00511,-0.03944,0.97641,2.7594,-0.04028,0.322093.352,0.00374,-0.04257,0.97878,2.96082,-0.12085,0.402623.356,0.00389,-0.0386,0.97672,2.98096,0,0.724713.36,0.00244,-0.03616,0.98557,3.42407,-0.04028,0.724713.364,0.00229,-0.03792,0.99304,3.68591,0.12085,0.791813.368,0.00443,-0.04257,0.98824,3.92761,0.2417,0.724713.372,0.00397,-0.04456,0.98396,4.20959,0,1.019963.376,0.00259,-0.03838,0.98244,4.51172,-0.06042,1.127333.38,0.00031,-0.02975,0.98625,4.61243,-0.10071,1.167593.384,0.00229,-0.03983,0.99396,4.85413,-0.18127,1.261533.388,0.00336,-0.03708,0.99739,5.05554,-0.20142,1.234693.392,0.00168,-0.03159,1.00342,5.19653,0,1.328643.396,0.0045,-0.04807,1.01059,5.45837,0.18127,1.274953.4,0.00259,-0.03746,0.99876,5.49866,0.20142,1.274953.404,0.00458,-0.02884,0.99579,5.7605,0.18127,1.489683.408,0.01167,-0.05066,1.00761,6.10291,0.04028,1.4363.412,0.00847,-0.03944,0.99724,6.26404,0,1.154173.416,0.00526,-0.0341,1.00182,6.54602,0.02014,1.04683.42,0.00717,-0.04906,1.01166,6.28418,0.22156,1.140753.424,0.00565,-0.03403,0.99442,6.02234,0.12085,1.248113.428,0.00343,-0.03426,1.00853,6.56616,0.10071,1.194433.432,0.01038,-0.05531,1.01418,6.26404,0.22156,1.127333.436,0.00916,-0.05196,0.99312,6.02234,-0.04028,1.288383.44,0.00023,-0.04425,0.98366,6.40503,-0.36255,1.288383.444,-0.00092,-0.03342,0.9819,6.30432,-0.36255,1.100493.448,-0.00084,-0.03136,0.98366,6.46545,-0.16113,1.113913.452,0.00122,-0.04005,1.00281,6.62659,-0.04028,1.30183.456,0.00603,-0.04227,1.0273,6.10291,-0.10071,1.395743.46,0.00381,-0.03593,1.02615,5.29724,-0.32227,1.274953.464,0.00923,-0.05051,1.01448,5.63965,-0.54382,1.060233.468,0.00175,-0.04906,0.99083,5.23682,-0.50354,1.087073.472,0.00092,-0.03273,0.97023,5.13611,-0.20142,1.060233.476,0.00626,-0.05608,0.99785,6.32446,-0.14099,1.087073.48,0.00183,-0.04707,1.0218,5.67993,0,1.060233.484,0.00427,-0.03639,1.03218,5.0354,-0.02014,0.966283.488,0.00229,-0.06844,1.0498,5.49866,-0.26184,0.764973.492,-0.00778,-0.04036,1.00578,3.66577,-0.20142,0.818663.496,-0.00282,-0.01579,0.96458,3.94775,0.02014,0.885763.5,0.00206,-0.05249,0.99846,5.45837,0,0.778393.504,0.00153,-0.05554,1.01883,4.24988,-0.12085,0.52343.508,0.00458,-0.03891,1.02013,3.18237,-0.06042,0.402623.512,0.01373,-0.0592,1.04652,3.80676,0.12085,0.254993.516,0.00084,-0.06729,1.0479,2.90039,-0.02014,0.429463.52,-0.00351,-0.0322,0.99678,1.71204,0.22156,0.429463.524,0.00359,-0.03906,0.98297,2.53784,0.30212,0.402623.528,-8.00E-05,-0.05363,0.99541,2.45728,0,0.241573.532,-0.0013,-0.03571,0.99655,1.7926,-0.18127,0.06713.536,0.01022,-0.04402,1.01929,1.81274,-0.38269,-0.107363.54,0.0061,-0.0631,1.03935,1.24878,-0.46326,-0.187893.544,0.00259,-0.04379,1.02287,0.10071,-0.36255,-0.120793.548,0.00656,-0.04349,1.00754,0.04028,0.04028,-0.161053.552,0.00389,-0.04967,1.00319,-0.20142,0.12085,-0.093943.556,-0.00237,-0.04433,0.99533,-0.76538,-0.16113,0.026843.56,0.00519,-0.03807,0.98816,-1.02722,-0.32227,-0.241573.564,0.00992,-0.05623,1.01257,-0.58411,-0.4834,-0.630773.568,-0.00031,-0.05661,1.02882,-1.3092,-0.52368,-0.577083.572,0.00565,-0.03876,1.02791,-2.11487,-0.04028,-0.52343.576,0.00999,-0.05234,1.03065,-2.07458,-0.04028,-0.496563.58,0.0016,-0.04776,1.01471,-2.73926,-0.02014,-0.751553.584,0.00099,-0.04364,1.00121,-3.10181,0.06042,-0.805233.588,0.009,-0.04852,1.00281,-3.06152,-0.04028,-0.791813.592,0.00587,-0.04555,1.01196,-3.54492,-0.10071,-0.952863.596,0.0016,-0.04799,1.03058,-3.62549,-0.06042,-1.019963.6,0.01007,-0.04913,1.04179,-4.0686,0.22156,-0.832083.604,0.00801,-0.05341,1.03851,-4.51172,0.04028,-0.832083.608,0.00351,-0.05486,1.01532,-4.99512,0.2417,-0.84553.612,0.00687,-0.03914,0.99205,-5.59937,0.30212,-0.805233.616,0.00389,-0.03899,0.99182,-5.33752,0.38269,-0.952863.62,0.00107,-0.04105,1.00212,-5.0354,0.18127,-0.926023.624,0.00488,-0.04631,1.01349,-5.33752,-0.04028,-1.019963.628,0.00946,-0.04349,1.01891,-5.96191,-0.12085,-1.207853.632,0.00526,-0.04242,1.02242,-6.22375,-0.04028,-1.154173.636,0.00679,-0.05463,1.01715,-6.70715,-0.06042,-1.087073.64,0.00839,-0.04402,0.9922,-7.00928,0,-1.181013.644,0.00519,-0.03799,0.97748,-7.04956,-0.08057,-1.154173.648,0.00549,-0.0396,0.98427,-6.88843,-0.26184,-1.019963.652,0.00633,-0.04601,1.00174,-6.92871,-0.28198,-1.04683.656,0.00618,-0.04883,1.01204,-6.90857,-0.36255,-1.060233.66,0.00572,-0.0457,1.01295,-7.29126,-0.10071,-1.100493.664,0.00618,-0.04913,1.01089,-7.61353,-0.18127,-0.805233.668,0.00465,-0.04181,1.0006,-7.85522,-0.14099,-0.684453.672,0.00282,-0.04181,0.98915,-7.81494,-0.02014,-0.738133.676,0.00488,-0.0425,0.99083,-7.59338,-0.34241,-0.899183.68,0.0029,-0.04433,1.00235,-7.47253,-0.4834,-0.91263.684,0.0074,-0.04471,1.01715,-7.37183,-0.26184,-0.671033.688,0.00725,-0.04974,1.02715,-7.45239,-0.16113,-0.684453.692,0.00587,-0.05013,1.01875,-7.77466,0.14099,-0.52343.696,0.00412,-0.04013,1.00441,-7.57324,0.28198,-0.496563.7,0.00351,-0.04105,0.99892,-7.53296,0.12085,-0.617353.704,0.00496,-0.04219,0.99327,-7.53296,-0.04028,-0.751553.708,0.00259,-0.03876,0.99495,-7.67395,-0.18127,-0.711293.712,0.00427,-0.04425,1.00906,-7.49268,-0.30212,-0.644193.716,0.00801,-0.04898,1.01776,-8.05664,0,-0.671033.72,0.00626,-0.04883,1.01166,-8.29834,0.06042,-0.375783.724,0.0058,-0.04639,1.00128,-8.49976,0.08057,-0.268413.728,0.00465,-0.04036,0.98663,-8.41919,-0.06042,-0.375783.732,0.00168,-0.03853,0.98015,-8.13721,-0.22156,-0.496563.736,0.0016,-0.04135,0.98663,-7.85522,-0.28198,-0.442883.74,0.00435,-0.04211,0.99602,-8.09692,-0.38269,-0.362363.744,0.00679,-0.04456,1.00868,-7.97607,-0.34241,-0.335513.748,0.00397,-0.05043,1.0128,-8.01636,0.02014,-0.442883.752,0.00572,-0.04539,1.00105,-8.2782,0.20142,-0.416043.756,0.00252,-0.0396,0.98579,-8.31848,-0.18127,-0.483143.76,0.00053,-0.0354,0.98488,-8.21777,-0.30212,-0.469723.764,0.00381,-0.04623,1.00204,-7.85522,-0.14099,-0.550243.768,0.00313,-0.04494,1.01021,-8.05664,-0.2417,-0.603933.772,0.00313,-0.04395,1.01463,-7.87537,-0.46326,-0.563663.776,0.00305,-0.05104,1.01669,-7.69409,-0.14099,-0.671033.78,0.00252,-0.04303,1.0083,-8.25806,0.18127,-0.697873.784,0.00244,-0.04066,0.99922,-8.13721,0.10071,-0.536823.788,0.00114,-0.0386,0.99884,-7.99622,-0.02014,-0.52343.792,0.00305,-0.04242,1.0051,-8.0365,-0.38269,-0.617353.796,0.00259,-0.04517,1.01006,-8.13721,-0.40283,-0.603933.8,0.00229,-0.04608,1.01265,-7.99622,-0.34241,-0.644193.804,0.0016,-0.04128,1.00662,-8.09692,0.02014,-0.872343.808,0.00198,-0.04066,0.99998,-8.07678,0.04028,-0.778393.812,0.00282,-0.04738,0.998,-8.0365,-0.14099,-0.872343.816,0.00549,-0.03967,0.9938,-8.17749,-0.06042,-1.127333.82,0.00389,-0.03792,0.99129,-8.33862,-0.34241,-1.221273.824,0.00076,-0.04501,0.98755,-7.97607,-0.32227,-0.91263.828,0.00351,-0.04456,0.98976,-7.75452,-0.20142,-1.04683.832,0.00534,-0.04242,0.99579,-7.83508,-0.08057,-1.100493.836,0.00389,-0.04021,0.99571,-7.75452,-0.08057,-1.181013.84,0.00092,-0.04013,0.9864,-7.65381,-0.2417,-1.006543.844,0.00496,-0.03906,0.98244,-7.21069,-0.32227,-1.033383.848,0.00275,-0.04189,0.98618,-6.94885,-0.36255,-1.073653.852,0.00038,-0.03784,0.98526,-6.96899,-0.18127,-1.073653.856,0.00267,-0.04211,0.98839,-6.5863,-0.32227,-0.97973.86,0.00389,-0.04181,0.99098,-6.52588,-0.36255,-1.073653.864,0.00343,-0.03975,0.99419,-6.28418,-0.34241,-1.060233.868,0.0042,-0.03792,0.99518,-6.06262,-0.58411,-1.087073.872,0.00435,-0.04204,0.99426,-5.72021,-0.56396,-1.154173.876,0.0032,-0.04189,0.99449,-5.29724,-0.2417,-1.006543.88,0.00595,-0.04135,0.99411,-5.17639,-0.16113,-1.006543.884,0.00381,-0.04051,0.9906,-5.13611,-0.2417,-0.993123.888,0.00229,-0.03616,0.98656,-4.77356,-0.22156,-1.04683.892,0.00275,-0.04234,0.99228,-4.41101,-0.32227,-0.926023.896,0.00343,-0.04349,0.99678,-4.43115,-0.30212,-0.711293.9,0.00519,-0.04166,0.99251,-4.35059,-0.30212,-0.603933.904,0.00572,-0.04219,0.98549,-4.00818,-0.22156,-0.84553.908,0.00496,-0.0367,0.97908,-3.64563,-0.18127,-0.764973.912,0.00267,-0.04196,0.97252,-3.14209,-0.08057,-0.738133.916,0.00221,-0.03777,0.96947,-2.65869,-0.12085,-0.711293.92,0.00488,-0.03807,0.97435,-2.25586,-0.10071,-0.644193.924,0.0058,-0.04204,0.98297,-2.0343,-0.22156,-0.563663.928,0.00313,-0.0386,0.98099,-1.69189,-0.16113,-0.509983.932,0.00465,-0.03807,0.97321,-1.08765,0.04028,-0.603933.936,0.00687,-0.04349,0.97183,-0.54382,-0.12085,-0.590513.94,0.00313,-0.03738,0.96718,-0.04028,-0.28198,-0.509983.944,0.00298,-0.03197,0.96771,0.50354,-0.32227,-0.469723.948,0.0042,-0.04242,0.97893,0.78552,-0.30212,-0.52343.952,0.00626,-0.04051,0.98785,0.82581,-0.42297,-0.52343.956,0.0042,-0.04219,0.99579,1.18835,-0.38269,-0.45633.96,0.00488,-0.04082,0.9922,1.4502,0,-0.416043.964,0.00603,-0.04059,0.98427,1.91345,-0.14099,-0.348933.968,0.00366,-0.04433,0.98633,2.35657,-0.38269,-0.268413.972,0.00374,-0.03906,0.98801,2.39685,-0.40283,-0.080523.976,0.00206,-0.03937,0.99197,2.73926,-0.4834,03.98,0.00374,-0.04417,1.0006,3.06152,-0.30212,-0.120793.984,0.00595,-0.04478,1.00204,2.96082,-0.30212,-0.214733.988,0.00534,-0.04326,0.99663,3.14209,-0.12085,-0.026843.992,0.00572,-0.0425,0.99182,3.26294,-0.06042,-0.134213.996,0.00259,-0.03937,0.98755,3.68591,-0.2417,-0.080524,0.00282,-0.04227,0.98549,3.88733,-0.40283,0.013424.4,0.00252,-0.04158,0.98625,3.86719,-0.58411,0.06714.8,0.00328,-0.0399,0.98915,3.86719,-0.4834,0.053684.12,0.0045,-0.04211,0.9919,3.92761,-0.26184,-0.053684.16,0.00526,-0.04288,0.98763,4.12903,-0.12085,-0.080524.2,0.00511,-0.04204,0.98206,4.7937,-0.40283,0.134214.24,0.00435,-0.04059,0.97954,4.77356,-0.42297,0.201314.28,0.00305,-0.04051,0.98358,4.81384,-0.58411,0.107364.32,0.0029,-0.04295,0.99052,4.87427,-0.66467,0.080524.36,0.00435,-0.04295,0.9964,4.57214,-0.7251,-0.107364.4,0.00549,-0.04288,1.00197,4.85413,-0.54382,04.44,0.0045,-0.04517,1.00105,5.09583,-0.46326,0.174474.48,0.00496,-0.04196,0.998,5.11597,-0.30212,0.214734.52,0.00328,-0.04356,0.99937,5.31738,-0.40283,0.228154.56,0.00351,-0.04379,1.00304,5.25696,-0.42297,0.120794.6,0.00351,-0.04364,1.00601,5.0354,-0.4834,0.161054.64,0.00374,-0.04341,1.00815,4.91455,-0.38269,-0.080524.68,0.00298,-0.04539,1.00952,4.83398,-0.44312,04.72,0.00359,-0.04601,1.00746,4.65271,-0.34241,-0.06714.76,0.0058,-0.04425,1.0038,4.33044,-0.40283,-0.080524.8,0.00397,-0.04356,1.00273,4.51172,-0.38269,-0.013424.84,0.00267,-0.04326,1.00136,4.77356,-0.32227,-0.120794.88,0.00206,-0.04356,0.99815,4.75342,-0.32227,0.026844.92,0.00275,-0.04227,0.99625,4.71313,-0.40283,0.040264.96,0.00504,-0.04318,0.99785,4.77356,-0.26184,-0.362364.1,0.00511,-0.04478,0.99609,4.59229,-0.32227,-0.362364.104,0.00534,-0.04311,0.99289,4.552,-0.36255,-0.429464.108,0.00504,-0.04402,0.99297,4.59229,-0.56396,-0.509984.112,0.00542,-0.04333,0.99304,4.61243,-0.36255,-0.52344.116,0.00534,-0.04326,0.99236,4.67285,-0.46326,-0.590514.12,0.00328,-0.04135,0.99243,4.81384,-0.38269,-0.697874.124,0.00603,-0.04318,0.99724,4.91455,-0.4834,-0.711294.128,0.00656,-0.04662,1.00327,4.7937,-0.60425,-0.738134.132,0.0061,-0.04433,1.00471,4.49158,-0.4834,-0.711294.136,0.00641,-0.04532,1.0067,4.63257,-0.36255,-0.644194.14,0.0058,-0.04555,1.00594,4.61243,-0.66467,-0.697874.144,0.00641,-0.04364,1.00464,4.3103,-0.66467,-0.617354.148,0.00565,-0.04395,1.00639,4.20959,-0.4834,-0.738134.152,0.00587,-0.04311,1.00876,4.08875,-0.34241,-1.04684.156,0.00732,-0.04456,1.01311,3.90747,-0.32227,-1.073654.16,0.00694,-0.04784,1.01418,3.74634,-0.2417,-0.778394.164,0.00702,-0.04478,1.00891,3.76648,-0.22156,-1.019964.168,0.00679,-0.04425,1.00342,3.84705,-0.32227,-1.194434.172,0.00694,-0.04326,0.99762,3.86719,-0.34241,-1.181014.176,0.00687,-0.04311,0.99518,3.66577,-0.36255,-1.167594.18,0.00732,-0.04478,0.99579,3.62549,-0.50354,-1.154174.184,0.00824,-0.04272,0.99625,3.68591,-0.30212,-1.019964.188,0.009,-0.04456,0.99808,3.76648,-0.32227,-0.872344.192,0.00839,-0.04585,0.99617,3.88733,-0.36255,-0.97974.196,0.00816,-0.0428,0.99045,3.90747,-0.42297,-1.207854.2,0.00908,-0.04189,0.98671,4.0686,-0.16113,-1.194434.204,0.00916,-0.03815,0.9877,4.3103,0.14099,-1.395744.208,0.00786,-0.04539,0.99686,4.24988,-0.12085,-1.355484.212,0.01137,-0.04593,0.9951,3.86719,-0.14099,-1.207854.216,0.01068,-0.04189,0.99045,4.18945,-0.32227,-1.140754.22,0.01122,-0.04738,1.0022,4.63257,-0.28198,-1.127334.224,0.00839,-0.04097,1.00212,3.94775,0,-1.033384.228,0.00641,-0.04486,1.00983,3.92761,0.10071,-1.127334.232,0.0106,-0.0528,1.00677,3.64563,-0.14099,-1.274954.236,0.00572,-0.02777,0.99892,3.60535,-0.46326,-1.355484.24,0.00435,-0.05409,1.02837,4.10889,-0.38269,-1.127334.244,0.01366,-0.0489,1.00822,3.28308,-0.12085,-1.248114.248,0.01534,-0.02464,0.97984,3.06152,0,-1.087074.252,0.00381,-0.03868,1.00113,4.10889,0,-1.006544.256,0.00755,-0.06805,1.0273,4.39087,0.36255,-0.657614.26,0.01999,-0.03868,0.98686,3.32336,0,-0.724714.264,0.01289,-0.02808,0.96451,3.86719,-0.50354,-0.630774.268,0.01343,-0.04066,0.99945,4.552,-0.18127,-0.322094.272,0.01175,-0.06027,1.01654,4.61243,0.08057,-0.254994.276,0.02098,-0.03395,0.9848,4.02832,0.52368,0.120794.28,0.02266,-0.02739,0.96146,5.13611,0.40283,0.281834.284,0.02144,-0.04242,0.97763,6.10291,0.16113,0.335514.288,0.01602,-0.05142,0.9906,6.06262,0.22156,0.590514.292,0.02403,-0.03418,0.97343,5.72021,0.4834,0.724714.296,0.0296,-0.03418,0.98129,6.50574,0.26184,0.899184.3,0.02785,-0.0528,1.00677,6.5863,0.10071,1.409164.304,0.02274,-0.03838,1.0054,6.46545,0.2417,1.422584.308,0.03174,-0.04425,0.99281,6.70715,0.62439,1.529954.312,0.02907,-0.0325,0.9671,6.76758,0.62439,1.583634.316,0.02769,-0.02876,0.96069,7.85522,0.56396,2.147294.32,0.03143,-0.04135,0.9861,8.68103,0.42297,2.375444.324,0.03723,-0.06203,1.00174,8.78174,0.4834,2.764644.328,0.03914,-0.03067,0.97679,8.17749,0.14099,3.073314.332,0.02983,-0.03525,0.98587,9.50684,0.42297,3.314884.336,0.03395,-0.05257,1.00235,9.88953,0.86609,3.744344.34,0.03868,-0.04227,0.98587,9.50684,1.10779,4.428794.344,0.03944,-0.03136,0.96107,10.35278,0.82581,4.992454.348,0.03662,-0.03784,0.96939,11.46057,0.34241,5.287714.352,0.03517,-0.04692,0.98427,11.90369,0.54382,5.663484.356,0.037,-0.04883,0.97595,12.20581,0.68481,6.160044.36,0.03586,-0.03014,0.96275,12.66907,0.80566,6.58954.364,0.03029,-0.03937,0.97618,13.81714,0.94666,7.139754.368,0.03258,-0.04219,1.00174,13.93799,0.74524,7.649734.372,0.02815,-0.05432,1.00647,13.67615,0.28198,7.904724.376,0.02907,-0.03105,0.97321,12.93091,0.02014,8.428124.38,0.02228,-0.02609,0.96825,13.53516,-0.18127,8.857584.384,0.02224,-0.04345,1.00414,13.12225,0.25177,9.407824.392,0.02106,-0.04311,1.0183,12.42737,0.2417,10.065434.396,0.01686,-0.04181,1.01761,11.82312,-0.14099,10.078854.4,0.01541,-0.04379,1.01524,11.44043,-0.38269,10.17284.404,0.01007,-0.03654,1.00883,10.67505,-0.46326,10.119114.408,0.00748,-0.03975,1.01357,9.97009,-0.16113,10.360694.412,0.00877,-0.04051,1.03821,9.3457,0.10071,10.655944.416,0.01259,-0.04547,1.06949,8.68103,0.10071,10.669364.42,0.02045,-0.05264,1.09573,7.61353,0,10.803564.424,0.01686,-0.05531,1.10069,6.2439,-0.34241,10.924354.428,0.0058,-0.04784,1.06972,4.87427,-0.50354,11.112244.432,-0.00084,-0.03075,1.02974,4.00818,-0.22156,11.139084.436,-0.00252,-0.03044,1.02173,3.58521,-0.02014,11.259864.44,0.00526,-0.03487,1.0392,2.73926,0.42297,11.340394.444,0.01373,-0.05066,1.07193,1.69189,0.26184,11.206184.448,0.01884,-0.03799,1.07864,0.2417,-0.10071,11.21964.452,0.00542,-0.03246,1.03825,-1.84296,0.06042,11.353814.46,0.01129,-0.01945,0.99693,-2.19543,0.46326,11.353814.464,0.01152,-0.03532,0.98984,-2.77954,0.16113,11.246444.468,0.01907,-0.00305,0.99121,-3.74634,0.38269,10.991454.472,0.01968,-0.03746,1.03157,-3.10181,-0.02014,10.843834.476,0.00824,-0.03548,1.02722,-4.33044,-0.16113,11.098824.48,0.01411,0.01183,0.99602,-5.53894,0.34241,10.937774.484,0.01625,-0.01656,1.00426,-3.64563,0.60425,10.991454.488,0.01495,-0.01083,1.00197,-4.47144,0.7251,11.179344.492,0.01526,0.01579,0.96947,-4.7937,0.52368,11.514854.496,0.01259,0.04272,0.95146,-3.66577,0.32227,11.729584.5,0.00732,0.06508,0.9597,-2.05444,0.44312,12.024844.504,0.00763,0.13832,0.9362,0.94666,1.16821,12.65564.508,0.02579,0.14824,0.97786,6.64673,1.81274,13.796354.512,0.03227,0.17342,0.99655,9.42627,1.47034,14.668694.516,0.04272,0.2562,0.94406,10.53406,0.92651,15.608134.52,0.0333,0.32425,0.90153,13.77686,0.85602,16.574414.528,0.03441,0.42542,0.86197,17.78503,0.58411,17.809114.532,0.03159,0.44121,0.88676,22.37732,-0.08057,18.748554.536,0.03265,0.48805,0.88219,25.07629,-0.20142,19.902724.54,0.02762,0.52681,0.87669,28.46008,-0.54382,20.8694.544,0.01801,0.54474,0.88585,30.91736,-0.92651,22.143954.548,0.01465,0.5648,0.88257,32.42798,-0.32227,22.935774.552,0.00984,0.58311,0.88684,33.39478,-0.36255,23.781264.556,-0.00092,0.58006,0.89996,34.20044,-0.64453,24.344934.56,-0.0148,0.58022,0.92735,34.40186,-0.54382,24.707284.564,-0.02335,0.55618,0.95207,35.34851,0.26184,25.056224.568,-0.02769,0.51994,0.97229,36.41602,1.10779,24.895174.572,-0.03387,0.46303,0.96718,37.94678,1.43005,24.895174.576,-0.04562,0.40855,0.95863,38.12805,1.7926,24.854914.58,-0.05951,0.35324,0.96054,37.36267,1.95374,25.083064.584,-0.07706,0.32028,0.97946,38.0072,2.07458,25.002534.588,-0.07908,0.21332,1.05133,40.78674,2.64862,24.445584.596,-0.09293,0.15533,1.04553,41.16943,3.28308,23.620224.6,-0.09415,0.11421,1.06895,41.95496,2.41699,23.016294.604,-0.0943,0.03136,1.12381,43.78784,2.47742,22.721044.608,-0.07919,0.05058,1.09474,41.79382,2.5177,21.98294.612,-0.06348,0.01297,1.11847,42.47864,2.5177,21.419244.616,-0.05508,-0.03654,1.1319,42.96204,2.41699,20.976364.62,-0.04677,-0.02159,1.11885,41.12915,2.98096,20.694534.624,-0.0399,-0.02602,1.12305,40.32349,3.16223,20.318754.628,-0.03784,-0.0563,1.14037,39.05457,3.54492,20.036924.632,-0.02403,-0.04982,1.11671,36.27502,3.7262,19.419574.636,-0.02144,-0.03899,1.11549,34.32129,3.42407,18.560664.64,-0.04234,-0.06538,1.1515,32.64954,3.44421,18.010414.644,-0.04738,-0.06699,1.15395,29.68872,4.20959,17.513854.648,-0.05173,-0.04158,1.13708,26.82861,5.07568,16.789144.652,-0.05379,-0.0563,1.15524,25.80139,5.94177,16.118114.656,-0.05199,-0.06699,1.15509,21.49109,6.70715,14.829744.664,-0.05081,-0.03944,1.1338,16.85852,6.92871,13.903724.668,-0.065,-0.05486,1.16035,15.20691,7.43225,13.299794.672,-0.06607,-0.07607,1.15341,12.64893,8.56018,12.856914.676,-0.04951,-0.03433,1.09253,9.74854,9.50684,12.400614.68,-0.03738,-0.02747,1.04507,10.67505,9.56726,12.252994.684,-0.03639,-0.04692,1.01639,7.77466,9.56726,11.568544.688,-0.04784,-0.07835,0.98198,7.47253,8.90259,11.394074.692,0.01144,-0.0174,0.8963,4.51172,8.82202,11.662484.696,0.02632,-0.02045,0.91484,7.27112,6.30432,12.024844.7,-0.04578,-0.05241,1.02646,9.12415,5.29724,12.279834.704,-0.05394,-0.05005,1.07857,8.33862,6.86829,13.554784.708,-0.02556,-0.10384,1.06216,8.49976,7.53296,14.037924.712,0,0.01274,0.98701,6.5863,6.96899,15.581294.716,-0.02998,-0.0235,0.90652,7.93579,5.88135,15.406824.72,-0.01839,-0.0457,0.89699,9.40613,5.21667,16.279164.724,-0.0206,-0.03334,0.92201,10.42328,4.94476,17.574254.732,0.00458,-0.05333,0.95528,11.42029,3.80676,18.533824.736,-0.00061,-0.02144,0.91278,11.6217,2.73926,18.694864.74,0.00267,-0.00572,0.89859,13.13232,1.59119,19.419574.744,0.01999,-0.0415,0.97504,14.94507,-0.04028,20.238234.748,0.04532,-0.04112,1.02081,14.24011,-2.05444,20.828744.752,0.07004,-0.03822,1.06712,13.67615,-5.21667,21.647394.756,0.07187,-0.07507,1.09322,13.21289,-8.39905,22.143954.76,0.06813,-0.01404,1.05057,12.04468,-11.07788,23.204184.764,0.04738,-0.05501,1.04584,14.78394,-13.35388,24.546234.768,0.00778,-0.07713,0.98442,14.19983,-14.92493,25.767514.772,0.01015,0.02579,0.87791,14.24011,-15.52917,26.639844.776,-0.00275,-0.02823,0.90591,17.88574,-16.81824,26.519064.78,-0.02914,-0.05386,0.92636,17.72461,-17.28149,26.532484.784,-0.04662,-0.00641,0.86281,16.77795,-16.5564,26.961944.788,-0.04929,-0.00946,0.8403,18.18787,-14.94507,27.216934.792,-0.03105,-0.02434,0.88699,18.97339,-12.81006,27.45854.796,-0.01816,-0.03437,0.93891,18.77197,-12.39716,27.532314.804,-0.02144,-0.0248,0.97855,18.73169,-12.70935,27.646394.808,-0.04738,-0.05371,0.92873,17.12036,-11.96411,27.418244.812,0.0177,0.03593,0.97252,17.08008,-10.61462,27.941644.816,0.01778,-0.14343,1.11069,18.51013,-11.74255,27.767174.82,0.02754,0.0016,0.97916,12.40723,-11.29944,27.767174.824,-0.00229,0.04829,0.98335,14.88464,-11.58142,27.673234.828,-0.05539,-0.14885,1.03462,16.91895,-10.71533,27.539024.832,-0.04738,0.02548,0.91446,12.42737,-9.54712,27.284034.836,-0.02136,0,1.03043,18.02673,-8.78174,26.653274.84,-0.07256,-0.13031,1.04973,17.92603,-8.78174,25.123324.844,-0.05554,0.08049,0.87326,16.37512,-8.43933,23.150494.848,-0.08934,0.01068,0.92278,24.39148,-10.43335,20.815314.852,-0.08545,-0.03761,0.88432,26.70776,-11.44043,18.19834.856,-0.11688,0.05272,0.81001,28.27881,-11.38,15.930224.86,-0.11658,0.01183,0.85739,33.85803,-9.5874,14.319764.864,-0.11864,-0.01644,0.87372,34.33136,-4.77356,12.192594.872,-0.08736,0.0016,0.86624,36.55701,-2.25586,9.85074.876,-0.09552,-0.03471,0.90767,37.5238,-1.91345,7.381324.88,-0.0914,-0.02922,0.90149,36.87927,-1.53076,5.005884.884,-0.09148,-0.00725,0.89394,37.50366,-0.2417,2.710964.888,-0.08743,-0.00023,0.9539,38.71216,1.38977,0.697874.892,-0.09659,-0.06027,1.02028,38.81287,2.73926,-1.181014.896,-0.08949,-0.03838,0.989,36.43616,3.8269,-3.274624.9,-0.05348,0.04517,0.96321,35.4895,3.74634,-5.193764.904,-0.04684,-0.06287,1.0675,37.22168,2.59827,-7.555784.908,-0.05402,-0.07515,1.06941,32.95166,1.95374,-9.756764.912,-0.05005,0.00473,1.0321,29.95056,2.43713,-11.461174.916,-0.03593,-0.06477,1.07788,30.01099,2.96082,-12.642184.92,-0.02579,-0.0592,1.0733,26.34521,3.40393,-13.930564.924,-0.0058,-0.0119,1.07529,23.12256,3.64563,-15.138414.928,0.02441,-0.06599,1.15479,21.45081,2.55798,-16.185224.932,0.06302,-0.06794,1.23146,14.12933,-0.69489,-17.889634.94,0.03441,-0.05257,1.17714,7.35168,-3.22266,-18.909594.944,0.04906,-0.03853,1.16173,3.70605,-3.10181,-18.815654.948,0.04662,-0.05661,1.18515,0.20142,-3.62549,-18.909594.952,0.04951,-0.07568,1.20262,-4.47144,-4.24988,-19.084064.956,0.05676,-0.05966,1.21323,-9.04358,-5.33752,-19.325634.96,0.06622,-0.06927,1.23093,-12.85034,-6.60645,-19.271954.964,0.09583,-0.07523,1.2619,-17.08008,-7.67395,-19.016964.968,0.08545,-0.08881,1.26663,-21.8335,-8.82202,-18.641184.972,0.07698,-0.05424,1.20186,-27.29187,-8.54004,-17.554114.976,0.07126,-0.03082,1.15837,-31.25977,-7.63367,-16.735464.98,0.08728,-0.05898,1.17348,-34.6637,-6.96899,-15.78264.984,0.08057,-0.04921,1.15509,-39.57825,-7.23083,-15.339724.988,0.07454,-0.02335,1.14822,-44.08997,-6.92871,-14.588174.992,0.07362,-0.06927,1.19141,-48.21899,-6.54602,-13.675574.996,0.07851,-0.06012,1.17119,-54.40247,-5.84106,-12.628765,0.08469,-0.02922,1.1631,-59.64935,-5.37781,-11.092115.8,0.07965,-0.04272,1.20674,-64.73511,-5.78064,-10.132545.12,0.06142,-0.03441,1.19362,-67.93762,-6.60645,-9.931235.16,0.05814,-0.03098,1.19041,-70.59631,-7.3114,-9.756765.2,0.03548,-0.0161,1.12991,-73.37585,-7.75452,-9.998335.24,0.03555,0.00969,1.0585,-75.36987,-7.25098,-10.280165.28,0.02472,-0.00877,1.0849,-75.89355,-6.828,-10.387535.32,0.00244,-0.02411,1.07574,-78.04871,-5.96191,-10.561995.36,0.02449,0.01099,1.06346,-79.84131,-4.39087,-10.749885.4,0.03113,-0.05028,1.07925,-80.02258,-4.35059,-11.716165.44,0.01389,0.02914,1.00945,-82.41943,-4.87427,-12.65565.48,0.02953,0.00443,1.02783,-79.9823,-5.29724,-13.272955.52,0.0264,-0.04921,1.07765,-79.7406,-6.2439,-13.930565.56,-0.00832,0.00061,0.93964,-81.73462,-5.88135,-14.440545.6,-0.00099,0.06905,0.87204,-79.72046,-4.0686,-14.467385.64,0.00473,0.04662,0.91919,-76.29639,-2.71912,-14.574755.68,0.02159,0.14091,0.74966,-70.95886,1.52069,-14.138585.76,0.09499,0.1635,0.65414,-59.67957,4.81384,-13.782935.8,0.10658,0.16075,0.68687,-55.69153,4.29016,-14.037925.84,0.15259,0.34958,0.60349,-51.13953,4.00818,-13.89035.88,0.19875,0.39589,0.42633,-39.27612,1.63147,-13.742675.92,0.13229,0.47417,0.29938,-25.39856,-0.66467,-14.440545.96,0.18913,0.70358,0.20096,-12.22595,0.44312,-13.823195.1,0.26062,0.74135,0.33005,7.15027,0.58411,-13.017965.104,0.25558,0.68291,0.45967,23.92822,-0.46326,-12.65565.108,0.26276,0.74623,0.40977,35.63049,-0.7251,-12.360355.112,0.29129,0.78323,0.40894,50.8374,-1.32935,-12.19935.116,0.26047,0.58929,0.65865,67.85706,-3.04138,-12.226155.12,0.16541,0.42694,0.90164,73.6377,-3.68591,-12.924025.124,0.14771,0.40825,1.08131,70.07263,-1.38977,-12.467725.128,0.16708,0.22339,1.39801,64.35242,2.33643,-10.937775.132,0.23468,-0.06248,1.72722,50.65613,6.18347,-8.629435.136,0.14656,-0.17445,1.89064,8.79181,9.55719,-5.146795.144,-0.02637,-0.11426,2.7334,-17.94617,11.40015,-3.596715.148,0.07129,-0.31836,2.52637,-38.47046,9.38599,-3.918815.152,0.09308,-0.03296,1.75232,-64.61426,2.55798,-7.421585.156,-0.1149,-0.02266,1.14037,-78.57239,-3.16223,-13.179015.16,-0.2739,0.25398,0.7486,-86.62903,-4.63257,-19.204855.164,-0.29892,0.32486,0.83176,-82.58057,-3.60535,-25.04285.168,-0.19302,0.31212,0.96161,-74.02039,-2.276,-32.008085.172,-0.14328,0.35881,1.05202,-68.25989,-4.18945,-37.644725.176,-0.10872,0.33829,1.0424,-64.71497,-5.7605,-41.120655.18,0.01366,0.44548,1.07513,-61.81458,-4.552,-41.066965.184,0.04013,0.36758,1.09932,-56.57776,-3.84705,-40.033585.188,-0.04852,0.22659,0.92743,-53.45581,-1.3092,-37.711825.192,-0.01755,0.63377,0.74615,-53.13354,3.86719,-33.162255.196,0.04845,0.27405,1.00273,-31.74316,6.42517,-27.431665.2,0.09293,0.22629,0.9594,-28.48022,5.70007,-23.338385.204,0.09186,0.3051,0.92209,-18.66119,1.92352,-16.883095.212,0.09674,0.26901,1.04523,-11.6217,-2.09473,-11.233025.216,0.09605,0.16121,1.03889,-11.56128,-3.46436,-7.032385.22,0.05798,0.243,0.87044,-15.02563,-2.92053,-3.744345.224,0.04669,0.2626,0.70892,-15.50903,-0.66467,-0.348935.228,0.07614,0.34988,0.69916,-12.5885,0.60425,2.939115.232,0.0666,0.24834,0.85899,-7.53296,-0.9668,4.066435.236,0.05592,0.26299,0.93491,-6.56616,-3.06152,3.959075.24,0.05531,0.21095,0.924,-5.86121,-5.25696,3.757765.244,-0.00366,0.22942,0.75066,-9.16443,-6.92871,3.140415.248,-0.04738,0.28366,0.61737,-8.70117,-5.37781,2.80495.252,0.03998,0.401,0.67444,-5.59937,-2.31628,3.878555.256,0.06294,0.18837,0.99464,3.10181,-2.35657,4.589845.26,0.05234,0.11391,1.00967,-0.10071,-2.33643,5.193765.264,0.02968,0.33218,0.90248,-3.38379,-1.34949,5.9995.268,0.03197,0.17639,0.98892,3.30322,-0.28198,6.415045.272,0.05836,0.11871,1.11328,3.80676,-0.04028,6.549245.276,0.02914,0.08217,1.19083,1.98395,-0.2417,5.334685.284,0.04456,-0.03143,1.30638,2.37671,-0.68481,4.670365.288,0.03502,-0.03014,1.26785,-1.89331,-1.10779,4.053015.292,0.00916,-0.1236,1.21773,-4.95483,-1.36963,3.623565.296,-0.00473,-0.10574,1.10382,-8.54004,-1.61133,2.590175.3,0.01587,-0.11711,1.11816,-7.91565,-1.28906,1.905725.304,0.01228,-0.2903,1.17897,-8.74146,-2.23572,0.84555.308,-0.00641,-0.205,1.01151,-15.65002,-2.83997,-0.617355.312,0.00404,-0.16815,0.93887,-16.61682,-3.38379,-1.543375.316,0.04028,-0.18974,1.1013,-15.91187,-3.92761,-1.543375.32,0.00259,-0.28732,1.23093,-19.94019,-4.16931,-1.328645.324,0.0161,-0.28099,1.21437,-28.78235,-2.47742,-0.161055.328,0.09079,-0.15488,1.07033,-37.40295,-1.18835,2.039935.332,0.03738,-0.23865,1.06804,-40.12207,-3.60535,3.126995.336,-0.02205,-0.18921,0.94604,-46.80908,-3.8269,3.65045.34,0.00092,-0.1062,0.79109,-46.95007,-4.51172,4.053015.344,0.04372,-0.05486,0.72792,-39.53796,-7.46246,4.422085.352,0.01717,-0.10788,0.90317,-32.91138,-6.36475,6.307675.356,0.00748,-0.13222,0.94719,-31.72302,-1.53076,8.750225.36,0.01862,-0.02052,0.99686,-31.50146,2.59827,9.971495.364,-0.00481,-0.03822,1.08566,-26.84875,3.58521,8.495235.368,0.01244,-0.09056,1.20872,-24.77417,2.65869,6.804235.372,0.00587,-0.08263,1.29524,-27.25159,-1.16821,4.187225.376,0.03647,-0.14801,1.35376,-29.42688,-3.7262,1.89235.38,0.07286,-0.10887,1.35201,-34.40186,-4.552,0.268415.384,0.02159,-0.13161,1.32782,-38.20862,-3.58521,-0.483145.388,0.01091,-0.07034,1.28868,-42.78076,-0.42297,1.113915.392,0.04158,-0.07332,1.25755,-46.14441,0.94666,2.952535.396,0.03426,-0.06042,1.17874,-49.06494,-1.14807,4.146965.4,0.01678,-0.03242,1.06827,-51.82434,-3.90747,4.898515.404,0.00542,-0.04372,0.96954,-52.12646,-5.72021,4.844835.408,-0.0132,-0.07584,0.79712,-53.5968,-5.80078,5.113245.412,0.00027,0.02628,0.56458,-48.38013,-2.05444,7.032385.42,-0.07988,0.0959,0.53108,-39.01428,0.32227,7.408165.424,-0.11597,-0.02617,0.67749,-27.49329,2.15515,6.415045.428,-0.10788,-0.05692,0.59578,-24.08936,2.57813,4.69725.432,-0.11726,0.09193,0.55321,-17.36206,0.36255,1.852045.436,-0.15755,-0.0515,0.6559,-6.84814,-2.0343,-1.315225.44,-0.17174,-0.02434,0.74913,-3.2428,-3.0011,-3.65045.444,-0.15335,-0.03357,0.85594,1.75232,-3.08167,-5.032725.448,-0.13206,-0.05737,0.99739,4.22974,-1.77246,-6.227155.452,-0.12253,-0.10162,1.09749,4.47144,-0.70496,-7.394745.456,-0.09186,-0.08713,1.06758,1.38977,0.04028,-8.454965.46,-0.03464,-0.00717,1.026,0.78552,-0.82581,-9.998335.464,0.00824,-0.04456,1.16714,2.77954,-3.50464,-11.098825.468,0.03326,-0.11559,1.24779,0.34241,-5.11597,-11.60885.472,0.06546,-0.10063,1.20461,-5.98206,-4.81384,-11.139085.476,0.09735,-0.03609,1.11801,-10.45349,-2.86011,-9.246785.48,0.07244,-0.0423,1.09703,-10.54413,0.71503,-6.790815.488,0.0663,-0.04585,1.0627,-12.12524,2.88025,-5.341395.492,0.07111,-0.05661,1.02478,-13.0719,1.10779,-4.925355.496,0.06683,-0.05333,1.01173,-12.62878,-1.4502,-5.811115.5,0.06355,-0.05562,1.00067,-11.94397,-3.50464,-6.777395.504,0.0518,-0.03387,0.98892,-11.50085,-4.37073,-7.636315.508,0.03922,-0.08011,1.00945,-10.3125,-3.26294,-7.528945.512,0.04959,-0.07111,1.01578,-11.84326,-1.4502,-6.871345.516,0.05859,-0.04333,1.04767,-11.7627,-0.54382,-6.737135.52,0.04227,-0.10468,1.11229,-11.74255,-0.54382,-7.112915.524,0.03189,-0.0988,1.02333,-14.66309,-0.74524,-8.132875.528,0.01694,-0.02068,0.88837,-16.51611,-1.36963,-9.501775.532,-0.0116,-0.0106,0.84976,-14.21997,-2.17529,-10.642525.536,-0.02563,-0.03273,0.90553,-10.87646,-2.19543,-12.172465.54,0.03738,-0.05653,0.88745,-10.3125,-2.53784,-12.440875.544,0.08408,0.0145,0.84015,-8.82202,-4.12903,-12.97775.548,0.07065,-0.14938,0.94208,-2.96082,-4.71313,-13.621895.556,0.14076,0.0602,0.84312,-8.82202,-2.86011,-12.722715.56,0.1149,-0.17548,0.93338,0.86609,-3.02124,-12.038265.564,0.10063,-0.13817,1.08185,0.86609,-0.38269,-11.555125.568,0.14236,-0.20813,1.01501,-2.23572,2.21558,-10.749885.572,0.13771,0.01137,0.93124,-3.02124,3.08167,-11.045135.576,0.07118,-0.23254,1.19484,1.73218,3.78662,-12.293255.58,0.13611,-0.17685,1.12053,-4.22974,3.58521,-13.192435.584,0.12802,-0.06035,1.02997,-5.41809,0.58411,-13.702415.588,0.10246,-0.15358,1.10306,-3.68591,-0.88623,-13.232695.592,0.08713,-0.11871,1.08551,-7.39197,-0.46326,-12.19935.596,0.07835,-0.09537,1.05499,-8.8623,0.70496,-11.098825.6,0.06737,-0.08118,1.0482,-8.88245,1.95374,-10.62915.604,0.07942,-0.10139,1.07056,-9.72839,3.0011,-10.427795.608,0.12215,-0.06187,1.04393,-11.05774,2.57813,-10.642525.612,0.1194,-0.06424,1.07071,-10.81604,1.10779,-10.76335.616,0.10857,-0.07919,1.08761,-13.51501,0.08057,-10.575415.624,0.12604,-0.0602,1.0968,-15.73059,0.2417,-10.374115.628,0.15526,-0.03937,1.12625,-17.70447,1.02722,-9.917815.632,0.14877,-0.06516,1.14128,-19.33594,1.97388,-9.448095.636,0.13557,-0.04311,1.08437,-21.95435,3.12195,-8.709955.64,0.13428,-0.01747,1.05347,-23.40454,3.22266,-7.95845.644,0.12177,-0.06363,1.06514,-23.44482,2.07458,-7.689995.648,0.11032,-0.06805,1.04935,-25.4187,0.36255,-7.300795.652,0.08492,-0.05394,1.00929,-26.46606,-0.70496,-7.072645.656,0.05745,-0.08865,0.99426,-26.3855,-0.7251,-6.710295.66,0.04799,-0.10002,0.95871,-26.78833,0.14099,-6.06615.664,0.03525,-0.11948,0.90942,-25.37842,0.70496,-5.421915.668,0.03906,-0.1664,0.99754,-22.09534,0.30212,-4.791155.672,-0.03792,-0.23132,0.90874,-24.43176,-0.76538,-5.650065.676,0.02121,-0.06126,0.8699,-23.52539,-0.16113,-5.596385.68,-0.03662,-0.29655,1.00098,-19.63806,-1.40991,-6.52245.684,-0.01186,-0.13493,0.92888,-22.0047,-0.01007,-7.448425.692,-0.01518,-0.21477,1.01059,-19.3158,-0.02014,-8.535495.696,0.01945,-0.12169,0.9697,-21.63208,0.62439,-8.8715.7,0.00732,-0.13138,0.98404,-19.69849,0.66467,-9.313885.704,0.00793,-0.1062,1.01524,-19.87976,1.36963,-9.78365.708,0.01503,-0.1339,1.03065,-19.73877,2.59827,-9.944655.712,0.03067,-0.0779,0.98274,-20.68542,3.44421,-10.924355.716,0.02785,-0.03441,0.98862,-19.69849,3.68591,-11.944315.72,0.03014,-0.07881,1.01295,-17.60376,3.94775,-12.937445.724,0.0222,-0.03517,0.95848,-18.51013,3.88733,-14.064765.728,0.02022,-0.01297,0.93803,-16.27441,4.37073,-14.682115.732,0.01999,-0.05463,0.96786,-13.87756,4.93469,-15.46055.736,0.01213,-0.0219,0.96481,-13.25317,5.70007,-16.104695.74,-0.00061,-0.03067,0.97412,-11.7627,6.60645,-16.426795.744,-0.0116,-0.03563,0.97992,-10.73547,7.51282,-17.084395.748,-0.01762,-0.0515,0.97435,-9.76868,7.81494,-17.996995.752,-0.00702,-0.02426,0.96016,-9.38599,7.43225,-19.003545.756,-0.01328,-0.06157,1.00197,-8.19763,5.86121,-20.224815.764,-0.01015,-0.04684,0.98694,-8.78174,5.53894,-20.989785.768,-0.02159,-0.05928,0.99419,-7.85522,6.06262,-21.164255.772,-0.01793,-0.06653,1.0289,-7.41211,7.21069,-21.164255.776,-0.01648,-0.09247,1.05637,-7.93579,7.7948,-21.217935.78,-0.02739,-0.08804,1.04568,-9.26514,7.85522,-21.285035.784,-0.02136,-0.06615,1.02562,-10.39307,7.45239,-21.45955.788,-0.01465,-0.07439,1.03729,-10.17151,6.5863,-21.526615.792,-0.01579,-0.09102,1.03691,-10.53406,5.90149,-22.076855.796,-0.00778,-0.06142,1.01425,-10.99731,6.10291,-21.902385.8,0.00175,-0.08453,1.02776,-10.0708,6.44531,-22.251325.804,0.0013,-0.09651,1.03439,-10.25208,6.90857,-22.492895.808,0.00824,-0.09117,1.02028,-10.15137,7.47253,-22.479475.812,0.01549,-0.10742,1.01929,-9.245,7.49268,-22.976035.816,0.02235,-0.12489,1.01822,-8.96301,7.13013,-22.89555.82,0.03082,-0.11971,1.00273,-9.3457,6.92871,-22.573415.824,0.05386,-0.13493,0.98625,-8.88245,6.828,-22.17755.832,0.06111,-0.14366,0.96245,-8.19763,6.84814,-22.009755.836,0.07263,-0.12978,0.91385,-8.29834,7.00928,-22.063435.84,0.08087,-0.11673,0.89111,-6.88843,7.25098,-21.499765.844,0.0927,-0.11665,0.88921,-5.07568,7.51282,-20.976365.848,0.09537,-0.13054,0.88516,-3.4845,7.75452,-20.775055.852,0.09056,-0.09911,0.86311,-2.23572,7.45239,-20.47985.856,0.10284,-0.13023,0.89737,0.10071,7.10999,-19.942985.86,0.10483,-0.15442,0.91835,1.5509,7.0697,-19.312215.864,0.10788,-0.13046,0.90172,2.69897,6.64673,-17.849375.868,0.10963,-0.15259,0.91339,4.63257,6.16333,-16.440215.872,0.11322,-0.14824,0.90767,5.21667,5.41809,-15.071315.876,0.09666,-0.15373,0.91797,6.76758,4.67285,-13.353475.88,0.09697,-0.17014,0.9417,7.99622,4.20959,-11.300135.884,0.09254,-0.16762,0.96291,8.84216,3.94775,-9.635975.888,0.06958,-0.18333,0.99602,9.72839,3.70605,-7.971825.892,0.03933,-0.187,1.05968,9.62769,3.85712,-5.482315.9,0.01724,-0.19508,1.101,8.72131,3.70605,-3.435675.904,0.00282,-0.18333,1.11626,7.10999,3.10181,-2.603595.908,-0.00343,-0.19783,1.13564,5.45837,2.45728,-1.704415.912,0.00038,-0.18799,1.12137,2.98096,1.40991,-1.274955.916,-0.00031,-0.17014,1.12778,1.2085,0.12085,-0.805235.92,0.00328,-0.18745,1.11824,-0.28198,-0.40283,-0.214735.924,0.0103,-0.1474,1.06621,-2.73926,-0.50354,-0.026845.928,0.01938,-0.14091,1.04416,-3.08167,-0.46326,0.026845.932,0.03258,-0.14771,1.0257,-3.26294,-0.18127,0.805235.936,0.04845,-0.13252,0.99724,-3.62549,-0.38269,1.50315.94,0.0605,-0.12772,0.98106,-3.32336,-0.4834,2.026515.944,0.06775,-0.12497,0.96611,-3.56506,-0.38269,2.429125.948,0.06027,-0.1149,0.95726,-2.90039,-0.14099,2.590175.952,0.0547,-0.10773,0.94673,-3.26294,0.20142,2.657275.956,0.04959,-0.09323,0.9243,-3.2428,0.9668,3.086735.96,0.05157,-0.07607,0.928,-1.6214,2.3465,3.576585.968,0.03967,-0.05981,0.92308,0.10071,3.26294,4.066435.972,0.02678,-0.06416,0.933,2.31628,3.14209,4.308015.976,0.02174,-0.08797,0.95039,3.92761,2.88025,4.375115.98,0.01411,-0.09331,0.94971,4.83398,2.01416,3.878555.984,0.01549,-0.10162,0.95268,6.08276,0.74524,3.529615.988,0.01549,-0.12192,0.9623,7.41211,-0.54382,3.475935.992,0.01961,-0.11642,0.95444,8.29834,-1.38977,3.435675.996,0.02502,-0.12657,0.97237,9.86938,-1.87317,3.798026,0.02739,-0.13527,0.99197,10.81604,-1.81274,4.549586.4,0.03365,-0.13283,0.98785,10.69519,-1.4502,5.408496.8,0.03845,-0.11429,0.98686,10.69519,-1.00708,6.119786.12,0.04562,-0.11879,0.9993,11.2793,-1.2085,6.670036.16,0.05814,-0.10185,1.00906,11.29944,-1.26892,6.91166.2,0.07736,-0.08347,1.02928,11.60156,-1.93359,7.260536.24,0.09506,-0.08621,1.05965,11.88354,-2.83997,7.609476.28,0.10845,-0.05913,1.04897,10.83618,-3.71613,8.28056.36,0.10864,-0.03334,1.02715,11.07788,-3.04138,9.756766.4,0.10765,-0.02838,1.00998,11.64185,-1.99402,10.709626.44,0.0956,-0.01122,0.99693,12.1051,-1.51062,11.233026.48,0.08125,-0.00992,0.99403,13.3136,-1.22864,11.273286.52,0.07736,-0.00671,0.98938,14.15955,-1.73218,11.098826.56,0.06714,0.00259,0.9787,14.96521,-2.49756,10.723046.6,0.075,0.01022,1.00105,16.21399,-3.34351,10.494896.64,0.09537,-0.01732,1.03897,17.12036,-4.27002,10.360696.68,0.12093,-0.00595,1.0524,16.87866,-5.13611,10.602266.72,0.14854,-0.02213,1.07933,17.12036,-5.86121,11.286716.76,0.17845,-0.03731,1.11534,16.43555,-6.52588,11.863796.8,0.19562,-0.04791,1.12473,15.12634,-6.96899,13.259536.84,0.20439,-0.056,1.11214,13.53516,-7.02942,14.682116.88,0.20309,-0.04684,1.06873,11.96411,-6.46545,16.547576.92,0.20088,-0.03387,1.02333,11.29944,-5.53894,18.292256.96,0.18162,-0.01369,0.95528,11.74255,-4.81384,20.701246.104,0.14641,0.00351,0.91209,14.19983,-4.77356,22.23796.108,0.12161,-0.00839,0.89653,16.27441,-4.85413,22.882086.112,0.09468,-0.00061,0.88326,18.81226,-5.41809,23.298126.116,0.07286,-0.02121,0.89813,21.45081,-5.39795,24.022836.12,0.05096,-0.02663,0.91476,23.20313,-5.21667,24.13026.124,0.02769,-0.03967,0.9391,25.4187,-4.77356,23.848366.128,0.00824,-0.05386,0.96107,26.6272,-4.41101,23.392076.132,-0.0013,-0.0473,0.99251,27.91626,-4.00818,22.76136.136,-0.01366,-0.10033,1.0463,29.12476,-4.27002,21.727916.14,-0.02571,-0.07874,1.05263,28.01697,-4.552,20.815316.144,-0.0325,-0.09254,1.06812,27.99683,-4.65271,20.345596.148,-0.03357,-0.10559,1.08917,27.51343,-4.552,19.835616.152,-0.04051,-0.08659,1.07849,26.20422,-4.14917,19.204856.156,-0.0441,-0.08514,1.07117,25.62012,-3.8269,18.560666.16,-0.04967,-0.09201,1.05301,24.47205,-3.32336,17.849376.164,-0.0502,-0.07332,1.02333,23.96851,-2.96082,16.869666.168,-0.0602,-0.09224,0.99541,24.02893,-2.65869,15.118286.176,-0.07614,-0.1284,0.97908,24.04907,-2.23572,13.50116.18,-0.12482,-0.07164,0.91446,21.73279,-0.98694,12.400616.184,-0.093,-0.0882,0.91194,24.95544,1.02722,11.904056.188,-0.11185,-0.16762,0.95825,25.72083,1.77246,10.588846.192,-0.08743,-0.06844,0.93864,24.99573,3.26294,10.092276.196,-0.09415,-0.17761,0.9877,28.43994,2.96082,9.166256.2,-0.07111,-0.13969,1.02737,27.51343,2.83997,8.884426.204,-0.06775,-0.21339,1.07834,28.70178,1.57104,8.589176.208,-0.06134,-0.20706,1.11588,27.29187,0.2417,8.616016.212,-0.04532,-0.26489,1.14197,26.16394,-1.10779,9.313886.216,-0.04593,-0.28008,1.10413,23.04199,-2.11487,9.890976.22,-0.03212,-0.28656,1.08688,21.79321,-1.99402,10.749886.224,-0.0148,-0.31952,1.06857,20.1416,-2.0343,11.836956.228,-0.01091,-0.30357,1.00716,17.90588,-2.31628,12.58856.232,0.01167,-0.32043,0.96291,17.48291,-2.45728,13.460846.236,0.02125,-0.34527,0.92648,17.26135,-4.15924,14.232526.244,0.02281,-0.36774,0.87128,17.10022,-5.09583,15.339726.248,0.02838,-0.38971,0.87128,18.04688,-5.74036,16.037596.252,0.03258,-0.44006,0.90103,18.26843,-6.64673,16.883096.256,0.04921,-0.43968,0.91957,17.05994,-7.61353,17.513856.26,0.05493,-0.46967,0.96809,16.71753,-9.28528,18.010416.264,0.0515,-0.50018,0.98816,14.68323,-10.71533,18.386196.268,0.03769,-0.50621,0.95856,11.56128,-11.40015,19.379316.272,0.00435,-0.49332,0.905,9.5874,-10.99731,20.224816.276,-0.0235,-0.49286,0.87006,8.72131,-9.46655,21.150836.28,-0.05386,-0.5069,0.85518,8.33862,-8.23792,21.419246.284,-0.08186,-0.50888,0.85365,8.23792,-7.71423,20.93616.288,-0.10147,-0.53238,0.88974,8.62061,-7.87537,19.50016.292,-0.12352,-0.5587,0.93437,8.19763,-8.43933,17.621226.296,-0.1413,-0.55931,0.98038,6.5863,-9.50684,15.836286.3,-0.15244,-0.56259,1.11801,5.96191,-9.40613,13.997666.304,-0.09113,-0.55355,1.00914,-3.81683,-8.34869,12.13226.312,-0.103,-0.72243,1.14769,-1.53076,-8.84216,10.441216.316,-0.07713,-0.56396,1.04271,-13.35388,-8.49976,9.421246.32,-0.12146,-0.51651,0.95734,-13.43445,-8.64075,7.448426.324,-0.11833,-0.57007,0.96519,-14.0387,-7.25098,6.495566.328,-0.12764,-0.50797,0.89188,-17.98645,-5.72021,5.126666.332,-0.13504,-0.46562,0.83778,-18.8324,-4.33044,3.771186.336,-0.14046,-0.51003,0.84213,-17.70447,-3.28308,1.878886.34,-0.13824,-0.50522,0.81352,-18.51013,-3.0011,-0.429466.344,-0.16029,-0.48538,0.7988,-18.04688,-2.45728,-2.80496.348,-0.16724,-0.55771,0.85846,-16.7981,-1.40991,-4.428796.352,-0.17067,-0.55557,0.87585,-18.81226,0.10071,-5.918476.356,-0.16647,-0.57404,0.89088,-20.08118,1.49048,-7.247116.36,-0.15419,-0.58861,0.91667,-21.79321,2.15515,-8.73686.364,-0.14229,-0.59807,0.94131,-23.54553,2.31628,-10.991456.368,-0.11726,-0.60532,0.96466,-25.51941,1.81274,-12.97776.372,-0.08102,-0.59658,0.96951,-28.86292,1.88324,-15.386696.38,-0.04616,-0.58769,0.96718,-31.9043,2.45728,-16.37316.384,-0.02426,-0.58807,0.94437,-34.54285,3.02124,-16.722046.388,-0.00679,-0.56587,0.89668,-36.67786,3.76648,-16.842826.392,0.00801,-0.56587,0.86212,-37.38281,4.22974,-16.977036.396,0.03311,-0.56404,0.83443,-38.10791,5.17639,-16.963616.4,0.05669,-0.55939,0.80315,-38.85315,5.90149,-16.909936.404,0.0753,-0.55954,0.79155,-38.59131,6.26404,-17.191766.408,0.09171,-0.56419,0.78148,-38.02734,7.04956,-17.258866.412,0.11421,-0.56625,0.77843,-37.60437,7.63367,-16.936776.416,0.12817,-0.56038,0.78255,-37.38281,7.93579,-16.708626.42,0.13626,-0.55138,0.78621,-36.53687,8.62061,-16.319426.424,0.14549,-0.55069,0.79323,-36.09375,9.5874,-15.487356.428,0.14328,-0.52841,0.7972,-35.91248,10.13123,-14.601596.432,0.14503,-0.52322,0.80429,-35.18738,10.47363,-13.903726.436,0.15198,-0.49805,0.78064,-35.71106,10.73547,-13.085066.44,0.15919,-0.45544,0.75829,-34.85504,10.62469,-11.977866.448,0.16312,-0.42648,0.73395,-33.91846,10.7959,-10.937776.452,0.15282,-0.38803,0.72403,-31.74316,11.07788,-10.186226.456,0.13664,-0.39574,0.73784,-28.84277,11.72241,-9.085736.46,0.13069,-0.37468,0.73784,-27.25159,12.30652,-8.334186.464,0.12215,-0.35515,0.72746,-25.37842,12.48779,-7.381326.468,0.11368,-0.34653,0.73891,-22.901,13.03162,-6.334516.472,0.11131,-0.35011,0.75111,-20.96741,12.87048,-5.489026.476,0.10292,-0.30502,0.73891,-19.53735,13.23303,-4.871676.48,0.09071,-0.28839,0.75043,-16.63696,13.73657,-4.227486.484,0.08308,-0.27687,0.75363,-14.88464,14.17969,-3.945656.488,0.06432,-0.25246,0.73479,-12.60864,14.78394,-4.214066.492,0.03792,-0.24109,0.72769,-9.92981,15.42847,-4.388536.496,0.019,-0.23056,0.72929,-6.64673,15.91187,-4.885096.5,0.00893,-0.23705,0.73593,-3.60535,16.05286,-5.529286.504,-0.00771,-0.23544,0.74989,-1.49048,15.87158,-6.200316.508,-0.02628,-0.21156,0.75901,1.69189,15.93201,-7.837626.516,-0.04128,-0.22865,0.79964,5.70007,15.48889,-9.944656.52,-0.03838,-0.24422,0.85335,7.67395,15.20691,-11.08546.524,-0.03433,-0.24849,0.89363,8.2782,15.06592,-12.06516.528,-0.03044,-0.25726,0.91621,8.25806,14.6228,-12.937446.532,-0.00748,-0.22003,0.9539,7.51282,14.15955,-13.782936.536,-0.009,-0.29022,0.9993,9.06372,13.05176,-14.990786.54,-0.00603,-0.24635,0.99693,6.72729,12.3468,-15.688656.544,0.00832,-0.25162,0.99236,6.78772,11.31958,-15.997336.548,-0.0177,-0.23109,1.04996,6.94885,9.92981,-16.668366.552,-0.01579,-0.32242,1.09238,6.76758,9.90967,-16.587836.556,0.00435,-0.24193,1.03294,3.08167,9.54712,-15.527616.56,-0.00923,-0.25505,1.07063,3.66577,8.64075,-14.440546.564,-0.0074,-0.26718,1.08917,3.16223,8.01636,-13.541366.568,-0.00404,-0.22194,1.05827,1.71204,7.47253,-12.682456.572,0.00542,-0.20569,1.0537,1.34949,7.04956,-11.944316.576,0.01453,-0.17067,1.01749,1.40991,6.46545,-10.964616.584,0.01381,-0.15213,0.99098,2.96082,5.72021,-10.226486.588,0.02113,-0.10834,0.9272,3.34351,5.74036,-9.219946.592,0.03159,-0.08926,0.91293,5.31738,5.49866,-8.361026.596,0.03685,-0.10223,0.91698,6.84814,5.23682,-7.448426.6,0.03815,-0.07988,0.89241,7.37183,5.11597,-6.696876.604,0.03593,-0.06584,0.85411,8.60046,4.77356,-6.13326.608,0.03479,-0.07721,0.85136,10.41321,4.37073,-5.837956.612,0.03593,-0.07393,0.85861,11.82312,4.00818,-5.556126.616,0.03426,-0.08873,0.86777,13.51501,3.40393,-5.193766.62,0.0267,-0.08286,0.87616,13.93799,3.16223,-4.992456.624,0.01968,-0.08522,0.88463,15.50903,2.55798,-5.15356.628,0.01068,-0.10666,0.90279,16.69739,2.276,-5.60986.632,0.02068,-0.11162,0.92003,16.75781,1.89331,-5.730596.636,0.01213,-0.12665,0.95711,18.22815,1.36963,-5.797696.64,0.02762,-0.20035,0.91888,18.61084,1.02722,-6.012426.644,-0.00992,-0.0547,0.97336,17.76489,0.38269,-6.388196.648,0.01949,-0.25574,1.02489,19.19495,2.45728,-6.368066.656,0.01183,-0.19104,1.0009,19.25537,2.29614,-7.260536.66,0.00694,-0.27618,1.06743,21.9342,2.41699,-7.421586.664,0.01785,-0.2565,1.03973,19.92004,2.83997,-8.092616.668,0.0161,-0.27481,1.03363,19.09424,2.83997,-8.334186.672,0.02449,-0.28152,1.04469,18.42957,3.16223,-8.468386.676,0.03143,-0.28641,1.0598,17.72461,3.46436,-9.005216.68,0.02831,-0.28618,1.06308,16.95923,3.86719,-9.542036.684,0.02747,-0.30823,1.09665,16.3147,4.20959,-8.991796.688,0.00984,-0.33653,1.11221,14.92493,4.20959,-8.267086.692,-0.00237,-0.30792,1.10886,12.08496,4.29016,-8.092616.696,-0.02037,-0.30891,1.1335,10.59448,4.63257,-7.703416.7,-0.02373,-0.32249,1.14273,8.74146,4.91455,-7.36796.704,-0.03929,-0.33211,1.13747,6.22375,5.11597,-6.91166.708,-0.05981,-0.34935,1.13548,3.98804,4.97498,-6.884766.712,-0.07408,-0.36049,1.1203,0.56396,5.53894,-7.166596.716,-0.08057,-0.37025,1.13304,-3.01117,5.88135,-6.542536.724,-0.09575,-0.39909,1.12045,-6.46545,5.90149,-5.985586.728,-0.11459,-0.40253,1.08376,-8.35876,6.46545,-6.186896.732,-0.12543,-0.38727,1.08498,-9.48669,6.96899,-6.58956.736,-0.11871,-0.40771,1.11359,-10.03052,7.25098,-6.535826.74,-0.10422,-0.41542,1.14914,-12.50793,7.00928,-6.710296.744,-0.1088,-0.42244,1.13625,-16.5564,5.98206,-7.36796.748,-0.12535,-0.43266,1.073,-20.625,5.67993,-8.173136.752,-0.13451,-0.40688,1.00449,-23.76709,6.50574,-8.723376.756,-0.13184,-0.39803,0.98106,-24.99573,7.73438,-9.085736.76,-0.12985,-0.4039,0.97687,-25.62012,8.2782,-9.313886.764,-0.13275,-0.41016,0.97343,-26.20422,8.25806,-9.689666.768,-0.13695,-0.41321,0.96512,-27.39258,8.0365,-10.521736.772,-0.12985,-0.41214,0.95543,-28.19824,7.83508,-11.098826.776,-0.1165,-0.39871,0.96542,-28.80249,7.59338,-11.971156.78,-0.09895,-0.40558,0.97824,-29.46716,7.21069,-12.642186.784,-0.07545,-0.42034,0.97942,-32.11578,6.02234,-13.534656.792,-0.02861,-0.42213,0.97099,-33.99902,4.77356,-13.715836.796,0.00839,-0.39177,0.95367,-36.01318,3.8269,-13.299796.8,0.03868,-0.38513,0.94635,-36.73828,2.96082,-12.414036.804,0.06737,-0.3904,0.92827,-37.24182,2.05444,-11.340396.808,0.07568,-0.38025,0.89394,-38.16833,1.04736,-10.374116.812,0.07774,-0.33577,0.92331,-36.95984,-0.02014,-9.39446.816,0.06721,-0.41084,0.96008,-35.42908,-0.66467,-8.790486.82,0.06706,-0.34935,0.94345,-36.67786,-1.34949,-8.159716.824,0.04898,-0.3833,0.98885,-35.36865,-2.29614,-7.180016.828,0.03426,-0.38063,1.00708,-35.65063,-2.35657,-6.213736.832,0.01747,-0.38429,1.03813,-35.77148,-2.49756,-5.421916.836,0.00374,-0.42755,1.08429,-35.67078,-2.67883,-4.979036.84,-0.0071,-0.41756,1.09596,-37.78564,-2.94067,-4.603266.844,-0.01976,-0.42877,1.11916,-38.83301,-3.7262,-4.214066.848,-0.0412,-0.44586,1.13739,-40.88745,-3.74634,-3.999336.852,-0.05939,-0.43015,1.14326,-43.81805,-3.25287,-3.428966.86,-0.06851,-0.43274,1.16325,-46.97021,-2.83997,-3.113576.864,-0.07713,-0.43678,1.17363,-49.36707,-2.65869,-3.059896.868,-0.09964,-0.44899,1.16974,-52.26746,-2.79968,-3.583296.872,-0.11497,-0.44632,1.12564,-56.17493,-2.41699,-4.455636.876,-0.11055,-0.44151,1.14594,-58.26965,-1.5509,-4.750886.88,-0.09499,-0.41412,1.16676,-60.6665,-1.0675,-4.616686.884,-0.09689,-0.45914,1.14998,-62.39868,-1.81274,-5.01936.888,-0.08835,-0.4142,1.10092,-64.71497,-1.97388,-5.113246.892,-0.08636,-0.41077,1.0511,-66.06445,-1.40991,-5.180346.896,-0.06844,-0.37628,1.02753,-67.09167,-0.58411,-5.099826.9,-0.04631,-0.33752,1.01685,-66.52771,-0.16113,-4.76436.904,-0.03693,-0.36446,1.01074,-65.68176,-0.46326,-4.63016.908,-0.01801,-0.36102,0.97542,-65.98389,-0.62439,-3.918816.912,0.00046,-0.34142,0.94185,-65.9436,-1.00708,-3.422256.916,0.02586,-0.33249,0.95047,-65.21851,-1.2085,-2.8726.92,0.04116,-0.38662,0.96527,-64.64447,-1.70197,-2.060066.928,0.0238,-0.33936,0.89294,-65.72205,-1.26892,-1.597056.932,0.02609,-0.32837,0.95192,-63.56689,-0.94666,-1.113916.936,0.07027,-0.31639,1.06949,-62.33826,-1.65161,-0.751556.94,0.0882,-0.43289,1.12793,-63.06335,-4.00818,-0.509986.944,0.07874,-0.40794,1.05362,-67.73621,-5.33752,-0.268416.948,0.04677,-0.36423,0.96542,-70.29419,-4.39087,-0.053686.952,0.03075,-0.3466,0.95329,-69.50867,-1.24878,0.375786.956,0.03052,-0.35873,0.98671,-68.01819,0.92651,0.84556.96,0.03891,-0.3862,1.01692,-67.37366,0.86609,0.536826.964,0.03357,-0.41039,1.02142,-68.13904,-0.80566,-0.134216.968,0.01526,-0.42122,0.9745,-69.99207,-1.85303,-1.154176.972,0.00618,-0.37903,0.9269,-70.85815,-1.67175,-1.409166.976,0.01167,-0.38887,0.94437,-69.32739,-0.60425,-1.073656.98,0.0309,-0.40779,0.98061,-68.42102,-0.38269,-0.805236.984,0.05623,-0.42229,1.00601,-68.38074,-1.0675,-0.697876.988,0.06424,-0.4388,1.00563,-69.33746,-3.25287,-0.644196.996,0.05966,-0.42679,0.96695,-70.31433,-3.70605,0.281837,0.06081,-0.42938,0.9539,-70.03235,-3.38379,1.060237.4,0.06119,-0.44724,0.97549,-69.46838,-3.30322,1.986257.8,0.06401,-0.46959,1.00861,-69.22668,-3.98804,2.536497.12,0.07202,-0.45982,1.00433,-69.56909,-5.49866,2.8727.16,0.07629,-0.44502,0.98274,-69.62952,-6.84814,3.502777.2,0.06126,-0.44754,0.94643,-69.79065,-7.15027,4.777737.24,0.05043,-0.43396,0.91446,-69.30725,-6.30432,5.851377.28,0.03601,-0.44678,0.90668,-68.01819,-5.80078,6.52247.32,0.01617,-0.44861,0.89622,-66.76941,-5.59937,7.005547.36,-0.00435,-0.43716,0.88715,-65.62134,-5.63965,7.475267.4,-0.02014,-0.43015,0.8847,-64.57397,-5.67993,7.837627.44,-0.0293,-0.43358,0.89218,-63.52661,-5.55908,8.106037.48,-0.02777,-0.4348,0.91202,-62.29797,-5.65979,7.985247.52,-0.02548,-0.45326,0.94154,-61.49231,-6.10291,7.730257.56,-0.01915,-0.45368,0.97038,-60.82764,-6.03241,7.327637.64,-0.02083,-0.46272,0.9848,-60.48523,-5.49866,7.555787.68,-0.01495,-0.46501,0.98038,-60.76721,-5.11597,7.851047.72,-0.00481,-0.45769,0.97916,-61.04919,-5.19653,7.851047.76,0.00809,-0.46028,0.9906,-60.6665,-5.65979,7.475267.8,0.01419,-0.46562,0.99617,-60.50537,-6.50574,7.206857.84,0.02258,-0.45311,0.99289,-61.00891,-6.78772,7.166597.88,0.02388,-0.44495,0.98145,-60.94849,-6.68701,7.488687.92,0.02441,-0.43579,0.97023,-60.58594,-6.40503,8.092617.96,0.02701,-0.42084,0.98038,-59.61914,-6.2439,8.642857.1,0.02731,-0.43221,0.98404,-59.13574,-6.38489,8.951527.104,0.0235,-0.42427,0.97473,-59.25659,-6.42517,9.340727.108,0.01823,-0.42656,0.96489,-58.91418,-6.36475,9.823867.112,0.01785,-0.43053,0.96497,-58.16895,-6.50574,10.159387.116,0.02174,-0.42137,0.97343,-57.30286,-6.80786,10.602267.12,0.02396,-0.42725,0.97832,-56.37634,-7.10999,10.978037.124,0.02258,-0.42068,0.97702,-56.01379,-7.23083,11.407497.128,0.01366,-0.42274,0.95253,-55.93323,-6.97906,11.964447.136,0.00404,-0.39795,0.93994,-55.59082,-5.67993,11.917477.14,0.00259,-0.40085,0.94193,-54.60388,-4.93469,12.06517.144,0.00656,-0.41733,0.95016,-53.75793,-4.57214,12.06517.148,0.01717,-0.43594,0.93811,-53.49609,-4.89441,11.716167.152,0.0219,-0.40909,0.93353,-53.25439,-5.92163,11.488017.156,0.00748,-0.46211,0.93597,-52.32788,-7.04956,10.951197.16,0.0267,-0.33447,0.92484,-54.50317,-6.76758,11.071987.164,0.0338,-0.48325,0.95558,-51.58264,-6.36475,11.957737.168,0.04333,-0.32928,0.91858,-54.60388,-5.86121,12.400617.172,0.03868,-0.4686,0.93552,-50.43457,-6.06262,12.65567.176,0.01465,-0.38742,0.9127,-51.50208,-6.44531,12.628767.18,0.02586,-0.40283,0.90416,-50.41443,-7.00928,12.870337.184,0.009,-0.41069,0.90912,-49.54834,-7.41211,12.561667.188,-0.0061,-0.3801,0.87364,-49.34692,-7.49268,12.185887.192,-0.01389,-0.41084,0.87158,-47.47375,-6.78772,12.13227.196,-0.02743,-0.41531,0.86334,-46.70837,-6.12305,11.951027.204,0.00237,-0.37292,0.91301,-44.95605,-5.74036,12.051687.208,0.01762,-0.45403,0.96786,-44.23096,-7.08984,11.944317.212,-0.00526,-0.46288,0.90546,-45.94299,-7.63367,11.702747.216,-0.03601,-0.40161,0.81093,-46.84937,-6.828,11.300137.22,-0.0309,-0.42526,0.8461,-43.526,-4.95483,11.689327.224,-0.02701,-0.42213,0.91965,-42.59949,-3.90747,12.373777.228,-0.01976,-0.45647,0.90767,-42.63977,-3.86719,12.58857.232,-0.0354,-0.43823,0.88516,-43.42529,-4.27002,12.65567.236,-0.06981,-0.4776,0.82809,-42.53906,-4.08875,12.159047.24,-0.06409,-0.38544,0.79338,-41.41113,-2.55798,11.810117.244,-0.05775,-0.47569,0.89844,-36.13403,-2.55798,11.420917.248,-0.04799,-0.49057,0.94376,-36.85913,-3.4845,11.08547.252,-0.0576,-0.48294,0.9333,-38.06763,-4.7937,11.004877.256,-0.10284,-0.51773,0.88737,-37.82593,-5.45837,10.199647.26,-0.12016,-0.48447,0.84923,-37.74536,-4.22974,9.555457.264,-0.06966,-0.48763,0.9531,-34.70398,-3.07159,9.038767.272,-0.02769,-0.48141,1.01204,-35.40894,-4.7937,8.616017.276,-0.03922,-0.49194,0.9938,-36.23474,-6.44531,8.173137.28,-0.05829,-0.45242,0.93765,-37.64465,-6.30432,8.052357.284,-0.06081,-0.43869,0.9063,-37.00012,-5.43823,8.253657.288,-0.05043,-0.43106,0.89981,-35.79163,-4.552,8.468387.292,-0.03044,-0.43564,0.92178,-34.60327,-4.20959,8.642857.296,-0.02602,-0.42519,0.91301,-34.84497,-4.49158,8.763647.3,-0.02907,-0.41061,0.88646,-34.7644,-4.81384,9.045477.304,-0.03311,-0.38696,0.86929,-33.43506,-4.71313,8.656277.308,-0.0177,-0.3894,0.88181,-31.07849,-4.49158,8.696537.312,-0.01091,-0.40863,0.89806,-29.36646,-4.29016,8.817327.316,-0.0209,-0.38101,0.86632,-29.84985,-4.18945,9.005217.32,-0.03922,-0.35324,0.82809,-28.62122,-3.02124,9.367567.324,-0.04311,-0.35545,0.83847,-26.30493,-1.61133,9.958077.328,-0.03601,-0.37041,0.86235,-24.31091,-1.0675,9.998337.332,-0.02468,-0.38181,0.8741,-22.901,-2.25586,9.159547.34,-0.01801,-0.37872,0.86197,-21.3501,-3.32336,8.199977.344,-0.01617,-0.37643,0.86426,-20.10132,-3.0011,7.636317.348,-0.00832,-0.383,0.8847,-18.73169,-2.37671,7.582637.352,0.00618,-0.38399,0.90073,-18.04688,-2.49756,7.569217.356,0.02266,-0.37598,0.90065,-17.72461,-3.04138,7.381327.36,0.03067,-0.373,0.89844,-17.1405,-3.76648,6.992127.364,0.02754,-0.3685,0.87791,-16.71753,-4.16931,6.58957.368,0.03624,-0.34248,0.85747,-16.3147,-4.22974,6.723717.372,0.03487,-0.34454,0.87006,-14.74365,-4.37073,6.58957.376,0.03342,-0.35828,0.86914,-13.87756,-4.10889,6.52247.38,0.02022,-0.30296,0.86411,-12.64893,-3.90747,6.670037.384,0.00954,-0.43327,0.85197,-9.90967,-2.98096,7.180017.388,0.02266,-0.29053,0.8419,-11.78284,-2.09473,7.448427.392,0.0029,-0.38696,0.89722,-7.99622,-2.77954,7.260537.396,0.01228,-0.32051,0.87776,-9.06372,-3.06152,6.831077.4,-0.02602,-0.33714,0.84965,-6.95892,-3.59528,5.556127.408,-0.02609,-0.3228,0.81963,-6.0022,-2.57813,5.08647.412,-0.03433,-0.33089,0.81993,-3.76648,-1.83289,4.791157.416,-0.02419,-0.32028,0.83641,-2.0343,-1.00708,4.643527.42,-0.04189,-0.34111,0.84396,-0.54382,-1.26892,3.78467.424,-0.03716,-0.35622,0.82184,0,-1.18835,3.247787.428,-0.03609,-0.2816,0.83275,0.06042,-0.9668,2.590177.432,-0.02937,-0.31883,0.83694,1.47034,-0.76538,2.080197.436,-0.02373,-0.29182,0.83359,2.33643,-0.36255,1.865467.44,-0.01663,-0.29839,0.85938,4.3103,0.26184,1.529957.444,-0.01251,-0.30998,0.86044,5.23682,0.28198,1.382327.448,-0.02213,-0.28221,0.86502,5.94177,0.10071,1.221277.452,-0.01854,-0.32074,0.87372,7.59338,-0.14099,1.181017.456,-0.00229,-0.28732,0.84587,7.21069,-0.68481,0.952867.46,-0.00801,-0.289,0.84496,8.66089,-1.40991,0.84557.464,-0.01472,-0.29015,0.83961,10.03052,-1.34949,0.872347.468,-0.01579,-0.27943,0.793,11.50085,-0.87616,1.409167.476,-0.01732,-0.28946,0.80826,15.36804,-0.7251,1.207857.48,-0.01053,-0.30144,0.82329,17.32178,-1.4502,1.315227.484,-0.02014,-0.31586,0.81764,18.20801,-2.43713,1.234697.488,-0.02907,-0.30846,0.78529,18.95325,-2.37671,1.127337.492,-0.03426,-0.29221,0.7753,20.42358,-1.5509,1.127337.496,-0.03517,-0.29793,0.79391,22.4176,-0.68481,1.194437.5,-0.01831,-0.28694,0.81871,23.78723,0.02014,1.315227.504,-0.00504,-0.298,0.85342,24.97559,-0.08057,1.489687.508,-0.00214,-0.30167,0.87036,25.64026,-0.30212,1.838627.512,0.0061,-0.30869,0.86342,26.36536,-0.18127,2.241247.516,-0.00595,-0.29831,0.83778,26.26465,0.36255,2.576757.52,-0.01976,-0.29823,0.82138,27.6947,1.22864,2.724387.524,-0.04204,-0.29694,0.78918,29.02405,2.31628,2.831747.528,-0.05623,-0.2755,0.76591,30.65552,3.2428,2.509657.532,-0.06805,-0.28206,0.7753,32.83081,3.42407,2.120457.536,-0.07862,-0.26588,0.78194,35.40894,2.73926,1.395747.544,-0.11681,-0.32227,0.76469,38.22876,2.47742,0.496567.548,-0.07103,-0.10933,0.74173,38.75244,4.27002,0.214737.552,-0.03326,-0.35522,0.94681,47.15149,3.32336,0.254997.556,-0.0425,-0.1944,0.85419,42.09595,3.0011,-0.080527.56,-0.05272,-0.27435,0.87944,45.3186,2.37671,0.295257.564,-0.07347,-0.26421,0.86304,45.39917,2.15515,-0.026847.568,-0.0547,-0.2594,0.85693,46.22498,2.07458,-0.026847.572,-0.05188,-0.23827,0.86288,47.05078,1.93359,-0.254997.576,-0.06508,-0.25185,0.77171,46.80908,1.95374,-0.563667.58,-0.02296,-0.18288,0.81558,49.87061,2.71912,-0.026847.584,-0.03708,-0.33241,0.86349,53.87878,1.91345,0.161057.588,-0.03746,-0.22812,0.78629,52.22717,1.93359,0.187897.592,-0.00549,-0.243,0.80055,55.95337,1.85303,0.308677.596,-0.02174,-0.30487,0.84198,58.85376,1.63147,0.161057.6,-0.02068,-0.2758,0.8197,59.17603,1.4502,-0.013427.604,-0.00519,-0.26215,0.83397,61.81458,1.53076,-0.228157.608,0.00362,-0.28675,0.90115,64.76532,1.72211,-0.073817.616,0.00465,-0.26512,0.9156,65.80261,1.26892,-0.026847.62,-0.00443,-0.27855,0.92705,66.76941,1.04736,0.416047.624,-0.01038,-0.22598,0.89767,65.78247,1.2085,1.006547.628,-0.00801,-0.25444,0.88013,66.93054,1.51062,1.382327.632,0.00183,-0.21362,0.87227,67.79663,1.73218,1.570217.636,-0.01633,-0.19897,0.88295,69.54895,2.25586,1.677577.64,-0.00717,-0.20988,0.92377,71.50269,2.61841,2.294927.644,-0.00557,-0.22888,0.92918,72.02637,2.29614,2.469397.648,-0.00916,-0.21446,0.9156,72.46948,1.49048,2.442547.652,-0.00603,-0.23727,0.88142,73.51685,0.40283,2.093617.656,-0.03258,-0.15526,0.83008,73.11401,-0.98694,1.690997.66,-0.10796,-0.13023,0.96832,77.40417,-1.14807,1.060237.664,-0.06653,-0.27954,1.03355,80.18372,0.92651,1.409167.668,-0.03738,-0.1825,0.95062,75.97412,1.10779,1.449427.672,-0.05943,-0.18028,0.95589,77.84729,0.32227,0.483147.676,-0.06165,-0.17685,0.99422,79.95209,-0.60425,-0.228157.684,-0.06348,-0.20271,0.99861,80.02258,-0.98694,-0.966287.688,-0.04143,-0.15976,0.94971,78.25012,-0.66467,-0.724717.692,-0.04967,-0.16052,0.95032,79.61975,-0.66467,-1.234697.696,-0.05386,-0.14091,0.96672,81.23108,-0.4834,-1.75817.7,-0.02708,-0.13145,1.02203,82.54028,-0.52368,-1.75817.704,-0.00092,-0.15816,1.07712,82.37915,-1.10779,-1.945987.708,0.02434,-0.16846,1.07941,80.62683,-1.69189,-1.865467.712,0.07683,-0.21141,1.0218,78.95508,-1.77246,-1.583637.716,0.02769,0.00313,0.96405,75.89355,-1.97388,-1.395747.72,-0.08263,-0.12886,1.14708,82.7417,-0.92651,-2.147297.724,-0.02937,-0.20569,1.08597,79.61975,2.61841,-1.905727.728,-0.03143,-0.03319,0.99037,75.87341,2.77954,-2.469397.732,-0.07301,-0.10612,1.07498,79.43848,2.17529,-3.556457.736,-0.06248,-0.10643,1.09856,78.35083,1.7926,-4.69727.74,-0.04929,-0.0856,1.0611,77.24304,0.70496,-5.891637.744,-0.05054,-0.06775,1.06094,74.73541,0.03021,-6.750557.752,-0.02625,-0.03937,1.06071,73.6377,0.22156,-7.273957.756,-0.01671,-0.02907,1.07231,73.57727,0,-7.260537.76,-0.00786,-0.03181,1.06819,72.36877,-0.18127,-7.166597.764,0.00229,-0.01534,1.04179,70.89844,-0.22156,-7.247117.768,0.00992,-0.00809,1.02875,70.41504,-0.60425,-7.153177.772,0.01259,-0.00221,1.02577,69.24683,-0.68481,-7.180017.776,0.00999,0.01984,1.0202,68.56201,-1.08765,-7.005547.78,0.00061,0.01404,1.02013,68.1189,-1.0675,-6.737137.784,-0.00557,0.00938,1.00243,67.41394,-0.84595,-6.576087.788,0.06027,-0.09384,0.9137,66.22559,-1.22864,-6.280837.792,-0.01045,0.20119,0.923,64.21143,-2.47742,-6.092947.796,-0.07874,-0.05577,1.07735,71.07971,-2.09473,-6.535827.8,-0.03487,0.00046,1.03249,66.84998,-0.26184,-5.931897.804,-0.01541,-0.01617,1.01044,65.7019,-0.32227,-6.119787.808,-0.03319,-0.00496,1.01913,66.54785,-1.4502,-6.831077.812,-0.06413,-0.01518,1.05667,65.73212,-2.16522,-7.10627.82,-0.04868,-0.03433,1.05179,62.3584,-1.65161,-7.998667.824,-0.02388,-0.01076,1.02066,60.68665,-2.0343,-8.763647.828,-0.02426,-0.01122,1.03828,60.64636,-2.96082,-8.978377.832,-0.03075,-0.02289,1.0363,59.57886,-3.26294,-9.555457.836,-0.00984,-0.02548,1.00456,57.5647,-3.02124,-9.944657.84,0.00778,-0.00252,0.95703,58.02795,-2.92053,-10.642527.844,0.0042,-0.02495,0.95871,59.599,-2.94067,-10.749887.848,0.00908,0.00412,0.97641,59.51843,-2.67883,-10.803567.852,0.01968,-0.00412,1.00304,59.76013,-2.57813,-11.434337.856,0.01915,-0.00893,1.00815,59.86084,-2.81982,-12.024847.86,0.00763,0.00603,0.99098,60.0824,-2.81982,-12.481147.864,0.02205,0.009,0.99594,60.26367,-2.43713,-12.360357.868,0.03342,0.01984,1.01624,59.65942,-2.59827,-12.45437.872,0.01404,-0.00336,1.00449,59.55872,-3.08167,-12.548247.876,-0.0042,0.02899,0.95779,58.67249,-2.79968,-13.205857.88,0.04059,0.05283,0.98232,60.15289,-1.80267,-12.313387.888,0.01198,0.019,0.98877,60.0824,-2.23572,-12.091947.892,0.02274,0.06325,0.98228,59.96155,-2.29614,-11.863797.896,0.01823,0.02228,0.99976,60.96863,-1.97388,-12.105367.9,0.08873,-0.08438,0.88524,59.599,-3.04138,-11.9987.904,0.03616,0.25711,0.89355,56.65833,-4.10889,-11.957737.908,-0.10017,-0.1326,1.02692,65.46021,-2.77954,-12.172467.912,0.08347,0.28641,1.00113,58.79333,1.34949,-12.226157.916,0.0927,-0.05714,1.16531,66.72913,-1.0675,-11.756437.92,0.04799,0.07332,1.08063,59.63928,-2.01416,-12.830077.924,0.02251,0.07942,1.00754,59.57886,-1.61133,-12.642187.928,0.02808,0.0602,1.0247,60.3241,-1.12793,-12.910597.932,-0.00343,0.0412,0.96771,59.67957,-1.04736,-12.991127.936,0.02602,0.09499,0.94109,59.92126,-0.82581,-13.50117.94,0.02548,0.11253,0.96878,62.31812,-0.94666,-14.091617.944,0.00618,0.06851,0.99739,64.75525,-1.16821,-14.48087.948,0.00198,0.079,0.96748,65.1178,-0.97687,-14.494227.956,0.00549,0.09483,0.96603,64.75525,-0.90637,-14.306337.96,0.02907,0.1239,0.99403,65.66162,-1.02722,-14.091617.964,0.02419,0.07034,1.05469,66.72913,-1.83289,-14.225817.968,0.01923,0.10948,1.02364,64.33228,-1.59119,-14.145297.972,0.04272,0.13641,1.02371,64.79553,-1.73218,-13.621897.976,0.04906,0.08293,1.05453,65.7019,-2.71912,-13.058227.98,0.0396,0.09651,0.97893,63.14392,-3.56506,-12.937447.984,0.01549,0.2269,0.98686,63.52661,-3.06152,-12.856917.988,0.00229,0.1062,1.08879,68.01819,-2.35657,-12.830077.992,0.02022,0.11314,1.05057,65.50049,-2.15515,-12.803237.996,0.01732,0.15648,0.99228,63.76831,-2.90039,-13.071648,0.02739,0.14702,0.99297,64.33228,-3.46436,-13.447428.4,0.02235,0.18822,1.03401,65.13794,-3.64563,-13.756098.8,0.00488,0.14328,1.07574,66.50757,-3.7262,-13.715838.12,0.00763,0.15106,1.06407,64.95667,-3.44421,-13.943988.16,0.02602,0.18345,1.04519,63.40576,-3.62549,-14.28628.24,0.01312,0.17761,1.05568,63.04321,-4.02832,-14.212398.28,0.02159,0.17097,1.04767,61.83472,-3.90747,-14.091618.32,0.02838,0.19623,1.0511,60.86792,-3.88733,-14.212398.36,0.01961,0.17982,1.05568,60.78735,-4.16931,-14.306338.4,0.01755,0.17159,1.0363,59.90112,-4.20959,-14.172138.44,0.02151,0.18173,1.01601,58.73291,-4.00818,-14.628438.48,0.01938,0.17387,1.02211,58.97461,-4.02832,-14.762638.52,0.02151,0.16365,1.03531,58.81348,-3.9679,-14.896848.56,0.03006,0.16518,1.03767,58.45093,-4.00818,-14.93718.6,0.03639,0.16289,1.03699,58.16895,-4.04846,-15.098158.64,0.03685,0.16159,1.03462,57.88696,-4.14917,-15.232358.68,0.03883,0.16365,1.03172,57.323,-4.12903,-15.473928.72,0.04303,0.16487,1.03119,56.69861,-3.92761,-15.527618.76,0.04349,0.16457,1.03653,56.39648,-3.80676,-15.514198.8,0.04379,0.17059,1.03821,55.67139,-3.8269,-15.433668.84,0.04425,0.17632,1.03088,54.98657,-3.70605,-15.178678.88,0.03613,0.1683,1.03611,55.32898,-3.31329,-15.25928.96,0.02792,0.19318,1.02493,54.38232,-3.2428,-15.138418.1,0.02747,0.18784,1.02516,54.42261,-3.18237,-15.017638.104,0.02945,0.2066,1.02226,53.8385,-2.96082,-14.843168.108,0.02449,0.22209,1.0379,53.89893,-2.86011,-14.789488.112,0.03174,0.2121,1.05148,54.42261,-2.63855,-14.601598.116,0.03181,0.22522,1.02829,53.09326,-2.49756,-14.467388.12,0.02388,0.24864,1.01608,53.07312,-2.5177,-13.903728.124,0.02983,0.23209,1.01372,53.45581,-1.7926,-13.635318.128,0.02869,0.2375,1.00479,53.09326,-1.77246,-13.219278.132,0.01816,0.23308,0.99213,53.13354,-1.57104,-12.937448.136,0.02907,0.26459,1.01242,53.91907,-0.9668,-12.58858.14,0.04128,0.2272,1.06445,55.40955,-0.92651,-12.051688.144,0.03746,0.20119,1.07582,55.22827,-1.10779,-11.649068.148,0.02068,0.20493,1.04324,53.81836,-0.84595,-11.595388.152,0.00687,0.20302,1.00166,53.15369,-0.44312,-11.67598.156,0.03143,0.22266,1.0548,55.31891,0.01007,-11.132378.164,0.02747,0.17349,1.07681,55.3894,-0.80566,-10.884098.168,0.02357,0.20508,1.02524,54.01978,-0.70496,-10.561998.172,0.03647,0.22171,1.01204,54.58374,-0.50354,-9.823868.176,0.05714,0.20874,1.05362,56.49719,-0.56396,-8.80398.18,0.04662,0.16533,1.06766,57.20215,-0.84595,-8.02558.184,0.02296,0.18936,1.02577,56.57776,-0.58411,-7.515528.188,0.03372,0.22827,1.01028,56.43677,0.12085,-6.992128.192,0.04974,0.21942,1.04546,58.93433,0.12085,-6.334518.196,0.03334,0.17273,1.06453,59.98169,-0.18127,-5.744018.2,0.0045,0.18753,1.01974,59.27673,0.14099,-5.690328.204,-0.00046,0.23155,0.99922,59.71985,0.52368,-6.06618.208,0.01694,0.22491,1.04927,62.21741,0.36255,-5.905058.212,0.02144,0.19127,1.08658,63.3252,-0.26184,-6.052688.216,0.01289,0.21286,1.06827,62.03613,-0.4834,-6.307678.22,0.01419,0.24406,1.05179,61.65344,-0.16113,-6.213738.224,0.03288,0.24704,1.07986,62.80151,0.1712,-5.650068.232,0.02556,0.27847,1.06636,62.29797,0.50354,-4.965618.236,0.03006,0.29221,1.0762,62.90222,0.66467,-4.093288.24,0.01663,0.25131,1.07773,63.52661,0.68481,-3.71758.244,0.00725,0.30113,1.02173,61.57288,0.70496,-3.65048.248,0.01411,0.31715,1.05881,63.68774,1.22864,-3.288048.252,0.02831,0.29343,1.09741,65.29907,1.14807,-3.073318.256,0.03716,0.29663,1.11252,65.80261,0.80566,-2.845168.26,0.03426,0.28069,1.10992,65.66162,0.34241,-2.791488.264,0.03609,0.30075,1.08124,64.151,0.56396,-2.643858.268,0.04219,0.28969,1.08559,65.15808,0.78552,-1.945988.272,0.03944,0.29312,1.09062,65.56091,0.70496,-1.556798.276,0.04295,0.29625,1.09947,65.31921,0.88623,-1.087078.28,0.05554,0.2964,1.11557,65.7019,0.84595,-0.91268.284,0.05486,0.28343,1.1174,65.46021,0.90637,-0.644198.288,0.04753,0.27802,1.10703,64.21143,1.18835,-0.161058.292,0.04543,0.27714,1.10565,62.06635,1.74225,0.254998.3,0.03685,0.26871,1.10527,59.73999,1.75232,0.563668.304,0.03906,0.22476,1.0482,57.60498,1.71204,0.805238.308,0.0341,0.28908,1.0083,56.33606,1.49048,0.764978.312,-0.00427,0.24994,1.0791,58.59192,2.49756,0.805238.316,-0.00511,0.2581,1.0714,55.99365,3.80676,1.248118.32,0.04921,0.31586,1.07513,56.47705,4.14917,1.690998.324,0.04837,0.20004,1.11694,57.94739,3.26294,1.677578.328,0.0338,0.2668,1.06316,54.86572,3.04138,1.82528.332,0.04837,0.27657,1.05865,53.89893,3.46436,2.603598.336,0.04089,0.20813,1.05469,52.93213,3.92761,3.583298.34,0.02876,0.2478,1.00075,49.99146,4.27002,3.972498.344,0.01846,0.26382,0.99045,50.15259,4.73328,4.522738.348,0.01572,0.23994,1.00075,49.91089,5.21667,4.804578.352,0.02213,0.23033,1.0186,50.1123,5.25696,5.207188.356,0.01167,0.22537,1.01807,50.09216,4.69299,5.166928.36,0.01511,0.21656,1.01925,48.96423,4.61243,5.052858.368,0.0312,0.214,1.03493,48.03772,3.9679,5.368238.372,0.02815,0.21118,1.03859,46.46667,3.68591,5.663488.376,0.01091,0.17731,0.99121,44.89563,3.94775,6.06618.38,0.01595,0.27512,0.94254,42.72034,4.7937,6.562668.384,0.00397,0.22118,0.97672,44.79492,5.53894,6.91168.388,0.01366,0.23537,0.99686,44.45251,6.3446,7.327638.392,0.04395,0.24368,1.03043,44.43237,6.30432,7.877888.396,0.02609,0.27344,1.07018,44.27124,5.78064,8.320768.4,-0.00221,0.21576,1.08086,43.70728,5.53894,8.428128.404,0.00946,0.26833,1.04652,41.45142,5.70007,8.857588.408,0.00702,0.23842,1.03691,41.12915,5.25696,9.19318.412,0.00587,0.28755,1.02501,39.86023,5.23682,9.635978.416,0.01762,0.28816,1.06186,40.20264,5.35767,9.944658.42,0.0341,0.27405,1.07887,39.75952,5.25696,10.145968.424,0.04402,0.29343,1.06873,38.30933,4.89441,9.998338.428,0.03441,0.30449,1.07128,37.03033,4.3103,10.36748.436,0.03517,0.30609,1.06712,35.2478,4.00818,10.213068.44,0.03685,0.3286,1.05698,33.73718,3.62549,9.743348.444,0.03174,0.31654,1.04759,32.75024,3.36365,9.904398.448,0.03502,0.32425,1.02959,31.86401,3.50464,9.944658.452,0.02068,0.30144,1.03004,31.64246,3.62549,9.770188.456,0.00374,0.30479,1.03233,31.05835,4.02832,9.125998.46,-0.00175,0.29846,1.06003,31.38062,4.0686,8.696538.464,-0.00572,0.27527,1.09627,31.25977,3.62549,7.716838.468,0.00343,0.27573,1.119,29.84985,2.81982,6.884768.472,0.01099,0.26428,1.14479,29.02405,1.97388,6.428468.476,0.02411,0.25261,1.13503,27.2113,1.4502,6.388198.48,0.0399,0.29709,1.12679,24.87488,1.49048,6.45538.484,0.03952,0.26596,1.12984,23.96851,1.65161,6.992128.488,0.03342,0.26344,1.08849,22.23633,2.23572,7.528948.492,0.02281,0.27306,1.02165,20.66528,2.94067,7.89138.496,0.03212,0.34073,1.0685,21.79321,3.4845,8.602598.5,0.03696,0.25345,1.03268,21.13861,2.72919,8.964958.508,0.02068,0.22011,1.07536,23.1427,1.51062,9.32738.512,-0.01282,0.18112,0.98457,20.00061,1.49048,9.313888.516,-0.00397,0.33012,0.95535,18.5907,2.79968,9.635978.52,0.00275,0.22652,1.06865,23.28369,3.28308,9.837288.524,0.04166,0.2549,1.12465,22.71973,3.10181,9.488358.528,0.04463,0.24406,1.14189,22.43774,1.83289,9.448098.532,0.03639,0.24872,1.12068,21.51123,0.9668,9.32738.536,0.03578,0.23827,1.09406,20.80627,0.88623,9.246788.54,0.03258,0.24483,1.06415,19.94019,0.44312,9.152838.544,0.01724,0.24513,1.0183,19.37622,0.12085,8.669698.548,0.02327,0.27702,0.99731,19.57764,0.82581,8.495238.552,0.04211,0.26886,1.01532,20.52429,1.4502,8.441548.556,0.04189,0.26863,1.03531,20.625,1.89331,8.374448.56,0.03014,0.26108,1.04126,20.40344,2.19543,8.374448.564,0.0309,0.28305,1.04805,20.48401,2.86011,8.02558.568,0.03155,0.25799,1.07227,19.84955,2.81982,7.347778.576,0.03868,0.24147,1.06163,18.65112,2.33643,7.112918.58,0.03677,0.22118,1.02493,17.18079,2.45728,7.273958.584,0.0293,0.22835,0.96786,15.60974,3.0011,7.287378.588,0.02686,0.27992,0.99342,16.53625,4.12903,7.622898.592,0.03639,0.22301,1.10161,18.81226,4.51172,8.226818.596,0.03586,0.21141,1.11794,17.48291,4.37073,8.293928.6,0.03159,0.23766,1.10863,15.46875,3.78662,7.636318.604,0.03532,0.21339,1.09749,13.797,3.10181,7.233698.608,0.02808,0.21912,1.06789,11.09802,2.94067,6.763978.612,0.02487,0.23888,1.02585,9.88953,2.69897,6.737138.616,0.00862,0.24025,1.00792,9.80896,2.90039,6.857918.62,0.00832,0.24025,0.99449,9.66797,3.34351,6.831078.624,0.00603,0.22011,0.98473,10.17151,3.2428,6.602928.628,-0.00244,0.21721,0.97313,10.11108,2.77954,6.106368.632,-0.00046,0.22194,0.9726,10.29236,2.59827,5.663488.636,0.01781,0.20725,1.01749,11.14838,2.07458,5.247458.644,0.0312,0.21294,1.03149,10.29236,1.61133,4.925358.648,0.03395,0.20653,1.04393,10.0708,1.71204,5.072988.652,0.03983,0.19722,1.04401,9.60754,1.73218,5.207188.656,0.04143,0.20279,1.04683,8.68103,1.57104,5.032728.66,0.04196,0.20035,1.04027,8.31848,1.22864,4.885098.664,0.03899,0.20248,1.03477,7.29126,1.16821,4.817998.668,0.03433,0.20271,1.03134,6.64673,1.28906,4.482478.672,0.03044,0.20706,1.02325,6.36475,1.14807,4.294588.676,0.02251,0.21629,1.026,6.20361,1.24878,4.066438.68,0.02365,0.21187,1.03874,6.62659,1.24878,3.945658.684,0.01648,0.20874,1.04729,6.28418,1.16821,3.985918.688,0.01564,0.20889,1.03966,5.55908,0.80566,3.408838.692,0.01694,0.21355,1.02661,4.73328,0.82581,3.086738.696,-0.00549,0.24307,1.03119,4.37073,0.76538,2.885428.7,-0.01617,0.20363,1.08047,5.55908,1.26892,2.523078.704,0.03044,0.19756,1.04252,2.83997,1.32935,2.408998.712,0.02991,0.19417,1.03432,2.17529,0.46326,2.241248.716,0.03365,0.17937,1.02036,0.84595,0.98694,2.268088.72,0.03639,0.19379,1.00464,-0.26184,1.18835,2.321768.724,0.03799,0.18372,1.0144,-0.54382,0.9668,2.093618.728,0.04219,0.17731,1.01906,-1.04736,0.76538,1.650738.732,0.03983,0.17784,1.02608,-1.73218,0.58411,1.462848.736,0.04593,0.17258,1.02829,-2.25586,0.64453,1.4368.74,0.03838,0.17563,1.03508,-2.90039,0.34241,1.194438.744,0.02266,0.17647,1.04156,-3.52478,0.50354,1.127338.748,0.00984,0.17502,1.05072,-4.39087,0.90637,0.697878.752,0.01053,0.15984,1.04446,-4.81384,1.16821,0.375788.756,0.01274,0.15686,1.02783,-5.57922,0.68481,-0.147638.76,0.00305,0.16975,1.02081,-6.26404,0.40283,-0.738138.764,0.00465,0.16243,1.03302,-5.92163,0.66467,-0.952868.768,0.00618,0.15434,1.03905,-5.94177,0.98694,-1.167598.772,-0.00366,0.14553,1.03886,-6.2439,1.10779,-1.214568.78,-0.00114,0.13634,1.00693,-7.41211,0.86609,-1.556798.784,0.00443,0.12978,0.98228,-7.73438,0.44312,-2.026518.788,0.01175,0.13336,0.96062,-7.63367,0.34241,-2.039938.792,0.01915,0.13153,0.95673,-7.33154,0.26184,-2.241248.796,0.02403,0.12939,0.96199,-6.60645,0.10071,-1.932568.8,0.02357,0.12558,0.9671,-6.10291,0.28198,-1.637318.804,0.01709,0.12238,0.97137,-5.65979,0.66467,-1.315228.808,0.01198,0.12421,0.97168,-5.65979,1.0675,-1.100498.812,0.00572,0.12894,0.97549,-5.35767,1.2085,-0.818668.816,0.00137,0.12253,0.98694,-4.81384,1.2085,-0.832088.82,0.00328,0.11986,0.99564,-4.73328,1.04736,-0.91268.824,-0.0045,0.12009,0.98503,-5.43823,0.62439,-1.019968.828,-0.01564,0.14496,0.99915,-5.47852,0.38269,-1.181018.832,-0.03052,0.10803,1.02501,-4.45129,0.60425,-1.207858.836,-0.03448,0.13008,1.02234,-6.10291,0.90637,-1.30188.84,-0.02285,0.12913,1.01101,-6.37482,0.67474,-1.771528.848,-0.00648,0.12871,0.9919,-7.02942,0.18127,-2.053358.852,0.00366,0.13,0.98892,-6.98914,-0.08057,-2.536498.856,0.03532,0.09155,0.98328,-7.15027,-0.14099,-2.496238.86,0.04799,0.14191,0.95558,-9.06372,-0.4834,-2.308348.864,0.02289,0.149,1.0096,-8.19763,-0.86609,-2.241248.868,0.01076,0.08392,1.05583,-7.77466,-0.08057,-2.093618.872,0.02251,0.1123,1.03958,-10.09094,0.74524,-2.120458.876,0.03075,0.08835,1.00899,-11.25916,1.00708,-2.254668.88,0.03654,0.13351,0.98785,-12.56836,0.86609,-2.120458.884,0.02502,0.0946,1.00227,-11.98425,0.46326,-1.999678.888,0.02602,0.10811,1.00853,-12.87048,0.52368,-1.798368.892,0.0193,0.10681,1.01585,-13.47473,0.36255,-1.50318.896,0.01137,0.08904,1.0215,-13.95813,0.06042,-1.570218.9,0.00214,0.0988,1.01646,-15.67017,-0.02014,-1.288388.904,-0.00259,0.08873,1.01379,-16.39526,0.02014,-1.234698.908,-0.01095,0.09193,1.02329,-17.41241,-0.20142,-0.811948.916,-0.02106,0.08606,1.03104,-18.75183,0.10071,-0.644198.92,-0.01709,0.07813,1.02303,-19.71863,0.16113,-0.187898.924,-0.0135,0.07507,1.00876,-20.66528,-0.26184,-0.254998.928,-0.00702,0.06721,0.99365,-21.26953,-0.62439,-0.026848.932,0.00023,0.06363,0.98076,-21.85364,-1.0675,0.295258.936,0.00175,0.06744,0.97923,-22.0752,-0.86609,0.630778.94,-0.00618,0.06012,0.98854,-22.15576,-0.64453,1.127338.944,-0.01167,0.0576,0.99632,-22.35718,-0.06042,1.623898.948,-0.01137,0.05302,0.99945,-22.86072,0.52368,2.469398.952,-0.00504,0.04646,0.99663,-23.22327,0.2417,3.086738.956,0.00435,0.0602,0.99411,-24.23035,0.10071,3.274628.96,0.02083,0.04662,0.99281,-24.61304,-0.38269,3.529618.964,0.03403,0.05211,0.98801,-25.05615,-0.74524,3.771188.968,0.04654,0.05173,0.99037,-25.45898,-0.90637,4.294588.972,0.05669,0.04242,0.99693,-25.55969,-0.80566,4.737468.976,0.05096,0.02228,0.99388,-25.86182,-0.7251,5.260878.98,0.04192,0.02869,0.98789,-26.35529,-0.28198,5.911768.988,0.03349,0.02975,0.98053,-27.2113,-0.14099,6.321098.992,0.01892,0.01114,0.98694,-27.00989,-0.28198,6.643198.996,0.00992,0.00755,0.99464,-27.15088,-0.16113,6.884769,0.00938,0.0042,0.99968,-27.71484,-0.20142,7.193439.4,0.01244,-0.00481,1.00296,-27.9364,-0.50354,7.206859.8,0.01305,-0.00191,1.00723,-28.94348,-0.56396,7.354489.12,0.01244,-0.00374,1.00945,-29.52759,-0.54382,7.555789.16,0.00931,0.00023,1.00266,-30.35339,-0.52368,7.649739.2,0.00687,-0.00969,0.98564,-31.25977,-0.22156,7.864469.24,0.00549,-0.00328,0.96817,-31.94458,-0.04028,7.851049.28,0.0042,-0.0029,0.9668,-31.68274,-0.22156,7.757099.32,0.01106,-0.00908,0.98412,-31.27991,-0.30212,7.82429.36,0.02647,-0.0103,1.00296,-31.44104,-0.54382,7.89139.4,0.04105,-0.01854,1.01173,-31.98486,-0.94666,8.267089.44,0.04883,-0.01167,1.00639,-33.05237,-0.90637,8.844169.48,0.0486,-0.00519,0.98759,-34.422,-0.83588,9.401119.56,0.03761,0.00572,0.97809,-35.10681,-0.30212,10.468059.6,0.02319,0.00954,0.9803,-35.12695,0.16113,10.897519.64,0.0132,-0.00191,0.98686,-35.04639,0.4834,10.884099.68,0.01007,-0.01038,0.97473,-35.34851,0.58411,10.910939.72,0.01259,-0.01198,0.95833,-35.42908,0.36255,10.561999.76,0.01717,-0.0145,0.96062,-35.34851,0.38269,10.119119.8,0.01549,-0.02563,0.97588,-34.96582,0.26184,9.823869.84,0.01106,-0.02724,1.00342,-34.9054,0.42297,9.743349.88,0.00534,-0.0325,1.02806,-35.34851,0.82581,9.461519.92,0.00214,-0.03502,1.05026,-36.43616,1.43005,8.709959.96,8.00E-05,-0.02518,1.06422,-37.32239,1.59119,8.199979.1,-0.00343,-0.03052,1.06293,-38.67188,1.38977,7.273959.104,-0.00702,-0.02831,1.04645,-40.2832,0.98694,6.227159.108,-0.0119,-0.02777,1.03256,-41.43127,0.88623,5.690329.112,-0.02251,-0.02762,1.03951,-42.25708,0.94666,5.435339.116,-0.03853,-0.03204,1.04408,-43.00232,1.12793,5.166929.12,-0.04768,-0.03197,1.03661,-44.02954,1.81274,4.952199.124,-0.04921,-0.03685,1.02142,-44.71436,2.07458,4.979039.128,-0.04013,-0.04456,0.99602,-45.29846,1.67175,4.777739.132,-0.01053,-0.02434,0.98938,-45.52002,1.08765,4.361699.136,0.00572,-0.07553,1.03973,-44.65393,0.26184,4.146969.14,-0.03265,-0.13535,0.95413,-48.23914,-0.22156,3.355149.144,0.02975,0.07233,0.87952,-49.44763,0.62439,2.965959.148,0.01022,-0.15472,1.02699,-44.06982,0.2417,2.174139.152,0.0248,-0.05974,0.98251,-49.5282,0.82581,1.315229.156,0.05081,-0.07347,0.95726,-48.90381,0.12085,0.563669.16,0.04692,-0.11604,0.99312,-48.92395,-0.86609,0.06719.164,0.05669,-0.08362,0.99808,-50.45471,-1.08765,0.45639.168,0.05302,-0.10757,1.0331,-50.29358,-0.90637,0.791819.172,0.05257,-0.09544,1.0183,-51.64307,-0.40283,1.113919.176,0.05211,-0.08766,1.01051,-51.98547,-0.56396,1.529959.18,0.05142,-0.09331,1.02386,-51.90491,-0.86609,1.516539.184,0.0576,-0.10521,1.03264,-52.22717,-0.80566,1.476269.188,0.05646,-0.10185,1.02852,-53.41553,-1.28906,1.422589.192,0.05356,-0.08591,1.03851,-54.26147,-1.5509,1.342069.196,0.03784,-0.08797,1.06506,-54.84558,-1.47034,1.113919.2,0.02312,-0.08148,1.07651,-55.97351,-1.34949,0.644199.204,0.01488,-0.07446,1.08017,-57.04102,-1.36963,0.281839.208,0.00343,-0.08209,1.07323,-58.16895,-1.83289,-0.254999.212,-0.00351,-0.08102,1.04919,-59.43787,-2.05444,-0.952869.216,0.00618,-0.06836,1.03287,-60.0824,-2.31628,-1.650739.22,0.00702,-0.08575,1.03523,-60.3241,-2.81982,-2.147299.224,0.00664,-0.08781,1.02547,-60.82764,-3.2428,-2.388869.228,0.01297,-0.09018,1.01585,-61.57288,-3.30322,-2.697549.232,0.02151,-0.09796,1.00983,-61.875,-3.20251,-3.006219.236,0.0209,-0.10864,1.00899,-62.62024,-3.08167,-3.019639.24,0.01724,-0.11795,0.99823,-63.0835,-2.92053,-3.153849.244,0.02083,-0.10712,0.99648,-63.26477,-2.94067,-3.422259.248,0.02213,-0.11742,1.02295,-63.12378,-2.79968,-3.475939.252,0.01717,-0.13756,1.03783,-63.6676,-2.7594,-3.422259.256,0.01846,-0.14435,1.02364,-64.55383,-2.71912,-3.543039.26,0.01663,-0.1358,1.00861,-65.21851,-2.59827,-3.449099.264,0.009,-0.15099,1.01585,-65.58105,-2.69897,-3.368569.268,0.00923,-0.15869,1.01616,-66.08459,-2.37671,-3.408839.272,0.01213,-0.14786,1.02303,-66.58813,-2.31628,-3.462519.276,0.00679,-0.17555,1.05148,-66.6687,-2.35657,-3.422259.28,0.00465,-0.18532,1.05148,-67.85706,-2.23572,-3.368569.284,-0.00397,-0.16823,1.03889,-68.9447,-2.43713,-2.939119.288,-0.0087,-0.18738,1.06331,-68.32031,-2.05444,-2.73789.292,-0.00092,-0.19882,1.03409,-69.54895,-1.38977,-2.147299.296,0.01892,-0.2932,0.8812,-72.38892,-1.83289,-1.597059.3,0.02159,0.04791,0.97389,-72.93274,-1.99402,-1.422589.304,-0.02823,-0.32951,1.15028,-63.56689,-1.3092,-1.194439.308,0.02937,-0.25383,1.04309,-71.12,-0.54382,-0.832089.312,-0.01289,-0.13901,0.97198,-71.86523,-1.04736,-1.50319.316,0.00107,-0.21675,1.01822,-69.77051,0.30212,-0.97979.32,-0.01137,-0.17067,1.05232,-70.47546,1.69189,-1.073659.324,-0.04745,-0.26413,1.08643,-69.83093,1.5509,-1.04689.328,-0.02823,-0.1973,1.01479,-74.06067,2.35657,-0.738139.332,-0.01755,-0.17761,1.00304,-73.81897,2.17529,-1.060239.336,-0.03922,-0.19203,1.03859,-73.23486,2.276,-0.711299.34,-0.05219,-0.22179,1.03371,-73.51685,2.13501,-0.872349.344,-0.04166,-0.18669,1.00647,-74.90662,1.85303,-1.462849.348,-0.04234,-0.21828,1.00952,-74.00024,1.73218,-1.650739.352,-0.03441,-0.2108,1.00563,-74.30237,2.19543,-1.409169.356,-0.02121,-0.20393,1.01601,-73.93982,2.23572,-0.926029.36,-0.01839,-0.24353,1.04301,-73.35571,2.17529,-0.764979.364,-0.01701,-0.14778,1.04652,-74.86633,2.69897,-0.281839.368,-0.00763,-0.38216,1.07651,-72.40906,2.49756,-0.228159.372,0.00214,-0.16975,1.0173,-77.24304,2.88025,-0.416049.376,-0.01709,-0.30228,1.07101,-73.75854,2.73926,-0.617359.38,-0.00931,-0.27252,1.06163,-75.65186,2.86011,-0.738139.384,0.01266,-0.26062,1.03004,-76.88049,2.43713,-0.563669.388,0.00473,-0.26131,1.05202,-76.21582,2.45728,-0.805239.392,-0.00565,-0.29907,1.03477,-77.20276,2.55798,-0.764979.396,0.01678,-0.21507,1.02997,-78.1897,3.42407,-0.684459.4,0.0058,-0.31227,1.05034,-77.40417,2.65869,-1.489689.404,0.03342,-0.24696,1.04691,-78.97522,3.22266,-2.026519.408,0.0267,-0.23743,1.07758,-78.20984,2.92053,-2.294929.412,0.04135,-0.30853,1.11198,-78.22998,2.88025,-2.442549.416,0.06577,-0.23262,1.05026,-82.15759,2.33643,-2.455979.42,0.05165,-0.25108,1.07262,-80.74768,1.63147,-2.751229.424,0.06271,-0.30724,1.09612,-80.52612,1.73218,-1.95949.428,0.05867,-0.22522,1.05652,-83.18481,1.87317,-2.496239.432,0.0473,-0.27649,1.07162,-81.47278,1.95374,-2.254669.436,0.04326,-0.28,1.06285,-83.16467,2.23572,-1.664159.44,0.05371,-0.21881,1.03088,-84.51416,2.49756,-1.583639.444,0.03967,-0.23048,1.05751,-81.93604,2.39685,-1.89239.448,0.02312,-0.27893,1.09482,-81.15051,2.0343,-1.570219.452,0.02541,-0.26382,1.07765,-82.31873,1.53076,-1.315229.456,0.01244,-0.26733,1.08551,-82.37915,0.58411,-1.597059.46,0.01427,-0.28999,1.09901,-82.35901,0.08057,-1.529959.464,0.01106,-0.25681,1.09459,-83.58765,-0.10071,-1.181019.468,-0.00053,-0.25818,1.10222,-84.25232,-0.30212,-0.697879.472,0.0386,-0.19333,1.15891,-84.51416,-0.14099,-0.214739.476,0.00122,-0.36835,1.14113,-84.93713,-1.51062,-0.187899.48,0.02151,-0.17113,1.04584,-88.88489,-1.18835,-0.536829.484,0.02037,-0.27847,1.11473,-85.46082,-1.83289,-0.483149.488,0.02655,-0.28091,1.09108,-87.61597,-2.43713,-0.134219.492,0.03105,-0.2417,1.0379,-88.94531,-2.25586,0.335519.496,0.00328,-0.25879,1.02394,-88.15979,-1.51062,0.563669.5,0.01183,-0.23636,1.01257,-87.73682,-0.44312,1.087079.504,0.03433,-0.26047,1.06667,-86.06506,-0.46326,1.288389.508,0.05508,-0.2906,1.11671,-86.50818,-1.28906,1.50319.512,0.07225,-0.3299,1.11214,-87.97852,-2.13501,1.744679.516,0.03899,-0.34836,1.0463,-89.79126,-2.73926,1.489689.52,0.01907,-0.29686,1.00014,-89.73083,-1.63147,1.556799.524,0.00626,-0.34927,1.04324,-87.2937,-0.62439,1.986259.528,-0.019,-0.36392,1.04523,-88.05908,-0.26184,2.160719.532,-0.01511,-0.32707,1.02028,-89.00574,-0.10071,2.147299.536,-0.00099,-0.35385,1.03966,-88.2605,-0.64453,2.133879.54,-0.01518,-0.36095,1.02608,-88.64319,-1.02722,2.053359.544,-0.02541,-0.34935,0.99297,-88.70361,-1.00708,1.89239.548,-0.03342,-0.37392,1.0154,-87.19299,-0.98694,1.583639.552,-0.02724,-0.38994,1.04713,-87.17285,-1.26892,1.610479.556,-0.01274,-0.38414,1.04706,-87.79724,-1.57104,1.36899.56,-0.028,-0.3875,1.02791,-88.15979,-1.99402,1.382329.564,-0.01328,-0.3746,1.03767,-88.30078,-1.71204,1.650739.568,-0.01625,-0.36346,1.03333,-88.44177,-1.75232,1.650739.572,-0.01579,-0.36819,1.06796,-87.95837,-1.59119,2.026519.576,0.00343,-0.40947,1.07948,-88.48206,-1.67175,2.187559.58,0.01183,-0.33974,1.04027,-91.08032,-2.07458,2.509659.584,-0.01953,-0.39352,1.00517,-90.79834,-2.0343,2.724389.588,-0.01953,-0.35263,0.98488,-90.17395,-0.38269,3.207529.592,-0.03281,-0.40237,1.01173,-87.63611,0.26184,3.126999.596,-0.028,-0.41138,1.03508,-87.61597,0.22156,2.925699.6,0.00511,-0.37476,1.07033,-88.54248,-0.28198,2.925699.604,0.02899,-0.41977,1.09558,-88.38135,-1.26892,2.939119.608,0.02159,-0.41229,1.09024,-89.20715,-1.71204,2.912279.612,0.02251,-0.40825,1.064,-88.94531,-1.08765,3.32839.616,0.01198,-0.43991,1.04836,-89.16687,-0.70496,3.838289.62,0.00946,-0.36835,1.0379,-90.15381,0,3.985919.624,0.00267,-0.45448,1.06392,-88.62305,-0.22156,4.079869.628,-0.02411,-0.32906,1.06232,-90.89905,-0.28198,3.78469.632,0.0267,-0.57617,1.03546,-88.48206,0.06042,4.012759.636,-0.01373,-0.29037,0.83527,-95.73303,0.76538,4.066439.64,-0.0486,-0.37842,0.90187,-88.11951,1.59119,4.053019.644,0.01572,-0.38773,1.00677,-85.86365,2.65869,4.415379.648,0.00305,-0.48225,1.02325,-86.50818,0.80566,3.569879.652,0.01762,-0.39604,0.91095,-90.35522,0.44312,3.422259.656,-0.00046,-0.40619,0.88692,-87.81738,0.76538,2.643859.66,-0.04066,-0.40199,0.90919,-86.16577,2.43713,2.066779.664,-0.0238,-0.43602,0.93445,-83.84949,4.04846,2.21449.668,-0.00313,-0.46196,0.95528,-83.2251,4.0686,2.147299.672,0.01038,-0.43503,0.95467,-83.9502,2.86011,1.731259.676,0.00412,-0.45135,0.98328,-82.78198,2.13501,1.4369.68,-0.01236,-0.4744,0.96596,-82.94312,1.95374,1.543379.684,-0.0222,-0.45944,0.905,-83.02368,2.57813,2.187559.688,-0.02869,-0.47852,0.9198,-80.92896,2.69897,1.972829.692,-0.02357,-0.50751,0.94406,-79.39819,2.71912,1.274959.696,-0.01503,-0.48149,0.94315,-78.89465,2.11487,0.711299.7,-0.00839,-0.46692,0.97137,-77.82715,1.22864,0.429469.704,-0.00175,-0.47684,0.98755,-77.36389,0.64453,0.38929.708,0.01266,-0.46951,0.99998,-77.08191,0.02014,0.483149.712,0.02365,-0.47607,1.00899,-76.63879,-1.04736,0.38929.716,0.03494,-0.45204,1.00784,-76.84021,-1.87317,0.738139.72,0.03036,-0.46165,0.99174,-76.31653,-2.33643,1.261539.724,0.02357,-0.4361,0.95253,-76.75964,-2.17529,1.704419.728,0.02876,-0.43198,0.9549,-75.63171,-1.87317,1.75819.732,0.03868,-0.43678,0.95909,-75.672,-1.69189,1.731259.736,0.04509,-0.41626,0.93826,-75.79285,-1.7926,1.731259.74,0.04967,-0.41702,0.92628,-74.92676,-1.77246,1.878889.744,0.04021,-0.42038,0.91362,-74.62463,-2.01416,2.21449.748,0.02884,-0.41992,0.89958,-73.81897,-2.07458,2.684129.752,0.0296,-0.42061,0.88692,-72.44934,-2.21558,3.153849.756,0.02441,-0.43045,0.87685,-71.56311,-2.21558,3.073319.76,0.02144,-0.42877,0.8625,-70.29419,-1.7926,2.845169.764,0.02083,-0.43747,0.86601,-68.82385,-1.85303,2.549919.768,0.00938,-0.52315,0.84457,-67.71606,-1.89331,1.972829.772,0.02464,-0.33501,0.91087,-68.15918,-1.87317,2.066779.776,-0.00084,-0.67253,0.87097,-63.88916,-3.26294,1.690999.78,0.03586,-0.27702,0.87532,-68.01819,-1.83289,1.355489.784,-0.03265,-0.65292,0.91232,-61.33118,-2.5177,1.288389.788,-0.01503,-0.30205,0.77843,-66.32629,-0.66467,1.087079.792,-0.00053,-0.57961,0.91476,-58.73291,-1.14807,1.382329.796,-0.00816,-0.4982,0.8725,-61.83472,-1.14807,0.348939.8,-0.0148,-0.43518,0.87379,-61.71387,-1.73218,-0.107369.804,0.01617,-0.47745,0.91087,-58.91418,-2.01416,-0.201319.808,0.02251,-0.5143,0.9433,-59.23645,-2.88025,0.348939.812,0.00427,-0.42976,0.8638,-59.96155,